time,C7_gyr_x,C7_gyr_y,C7_gyr_z,C7_acc_x,C7_acc_y,C7_acc_z,C7_mag_x,C7_mag_y,C7_mag_z
0.0,0.1220703125,0.06103515625,0.244140625,-0.9438764610736412,-0.1383098849452192,-0.2805261391033662,21.5,13.6875,-12.125
0.5,-0.48828125,-0.30517578125,0.18310546875,-0.9436323129978332,-0.1379436628315073,-0.2745445112460707,23.9375,14.8125,-11.25
1.0,0.0,-0.3662109375,-0.1220703125,-0.9448530533768732,-0.1387981810968352,-0.2761314737388226,21.875,13.375,-10.4375
1.5,0.18310546875,0.3662109375,0.0,-0.9446089053010652,-0.1391644032105471,-0.28247932370983,22.1875,15.1875,-11.6875
2.0,-0.30517578125,0.244140625,0.1220703125,-0.9472945341349528,-0.1380657368694113,-0.2837000640888699,22.1875,13.6875,-10.4375
2.5,0.67138671875,0.0,0.30517578125,-0.9450972014526812,-0.1435590685750908,-0.2780846583452864,22.1875,13.375,-8.6875
3.0,-0.732421875,1.5869140625,0.244140625,-0.9483932004760888,-0.1370891445661793,-0.2700277718436231,23.625,14.8125,-13.8125
3.5,-0.6103515625,-0.06103515625,-0.1220703125,-0.945585497604297,-0.1366008484145634,-0.2697836237678152,22.5625,13.6875,-12.5
4.0,1.220703125,-0.30517578125,0.9765625,-0.9431440168462172,-0.1427045503097628,-0.2721030304879909,22.1875,13.6875,-11.6875
4.5,1.8310546875,-7.32421875,0.0,-0.9525437177648244,-0.1098666341135898,-0.2884609515671255,22.1875,13.0,-13.0
5.0,1.46484375,0.06103515625,-1.708984375,-0.9866023743400372,-0.0750755333109531,-0.1661427655873287,21.125,12.1875,-11.25
5.5,7.38525390625,0.3662109375,2.25830078125,-0.9754936368907744,-0.1068147831659901,-0.2133854182561723,23.25,12.5625,-10.4375
6.0,-0.9765625,16.17431640625,-1.708984375,-0.9444868312631612,-0.0585955381939146,-0.3382671590319528,22.9375,13.375,-9.1875
6.5,2.685546875,-3.173828125,-1.03759765625,-0.9530320139164404,-0.0451673940244758,-0.3078707235938597,24.6875,12.5625,-10.4375
7.0,-9.21630859375,-9.6435546875,1.46484375,-0.9376506851405376,-0.108767967772454,-0.3747672963652455,23.625,13.375,-8.6875
7.5,3.60107421875,-4.57763671875,-3.90625,-0.95730460524308,-0.0938749351481673,-0.2437818536942655,21.5,14.4375,-12.125
8.0,5.615234375,-3.41796875,1.40380859375,-0.9501022370067446,-0.1070589312417981,-0.15149388103885,23.25,13.375,-15.0625
8.5,-6.9580078125,-7.87353515625,1.64794921875,-0.9758598590044862,-0.1164586321604052,-0.1763969847712637,20.8125,11.4375,-13.375
9.0,-8.48388671875,-0.67138671875,-2.3193359375,-0.9702444532609028,-0.0593279824213385,-0.2009338663899655,21.875,13.375,-15.5
9.5,-5.126953125,6.2255859375,5.06591796875,-0.9826960051271096,-0.0334482863856929,-0.1818903164769432,21.5,13.6875,-14.25
10.0,2.0751953125,1.64794921875,-1.03759765625,-0.9420453505050812,-0.1073030793176061,-0.2659993285927915,23.25,11.8125,-12.125
10.5,-5.615234375,-2.50244140625,-0.9765625,-0.9692678609576708,-0.075563829462569,-0.2259590441602832,22.9375,12.1875,-12.5
11.0,2.3193359375,-6.77490234375,-2.13623046875,-0.9507126071962644,-0.1131626331369975,-0.2125308999908444,21.875,12.5625,-13.375
11.5,-0.1220703125,14.6484375,-4.0283203125,-0.9603564561906796,-0.1062044129764702,-0.2291329691457869,23.625,12.5625,-10.875
12.0,-4.82177734375,-17.9443359375,0.30517578125,-0.97842341380047,-0.1088900418103579,-0.1547898800622577,22.1875,12.1875,-15.5625
12.5,-6.16455078125,-0.732421875,-2.38037109375,-0.9313028351695304,-0.0045167394024475,-0.3989379558702353,22.5625,14.8125,-13.0
13.0,0.67138671875,-1.220703125,0.30517578125,-0.9227576525162512,-0.1970274971770378,-0.2888271736808374,20.5,16.6875,-10.4375
13.5,-0.9765625,0.3662109375,0.06103515625,-0.9326456495864742,-0.1713919492172002,-0.2860194708090456,22.9375,16.3125,-13.0
14.0,-0.244140625,0.1220703125,1.40380859375,-0.9325235755485702,-0.1646778771324808,-0.2978606524857325,21.5,14.4375,-8.6875
14.5,1.3427734375,-0.91552734375,-0.244140625,-0.934476760155034,-0.1584521011993774,-0.2984710226752525,20.8125,14.8125,-10.4375
15.0,-0.8544921875,0.0,-0.91552734375,-0.9372844630268258,-0.1491744743186742,-0.3011566515091403,22.5625,15.9375,-11.6875
15.5,-0.48828125,0.54931640625,1.220703125,-0.9389934995574816,-0.1543015839106418,-0.2939542832728049,23.625,14.0625,-9.5625
16.0,0.30517578125,14.5263671875,8.11767578125,-0.9288613544114506,-0.1323282570879238,-0.2948088015381329,23.625,13.375,-10.875
16.5,-2.197265625,-0.732421875,8.11767578125,-0.9187292092654196,-0.0712912381359294,-0.3377788628803369,23.9375,12.1875,-8.75
17.0,-20.5078125,2.62451171875,-11.77978515625,-0.9223914304025392,-0.0147709585863826,-0.4068727683339945,23.25,12.1875,-7.4375
17.5,6.9580078125,-2.62451171875,0.91552734375,-0.9515671254615924,-0.0816675313577684,-0.2968840601825007,23.625,10.6875,-8.6875
18.0,20.56884765625,14.83154296875,7.01904296875,-0.9393597216711936,-0.1286660359508041,-0.3238624225592822,24.6875,12.1875,-10.4375
18.5,-1.52587890625,-3.41796875,0.3662109375,-0.9319132053590504,-0.064455092013306,-0.3350932340464492,22.1875,11.0625,-9.1875
19.0,6.40869140625,-13.85498046875,-4.45556640625,-0.9851374858851892,-0.086062196722312,-0.1757866145817438,22.9375,14.4375,-14.25
19.5,0.18310546875,0.48828125,-0.6103515625,-0.9855037079989012,-0.0815454573198645,-0.1372112186040833,22.9375,11.4375,-14.625
20.0,0.1220703125,14.34326171875,5.7373046875,-0.9817194128238776,-0.1392864772484512,-0.0625019074068422,20.8125,10.3125,-16.3125
20.5,14.22119140625,13.427734375,6.4697265625,-0.9249549851985228,-0.0946073793755913,-0.3540147099215674,23.625,11.8125,-8.6875
21.0,-25.2685546875,-15.625,3.84521484375,-0.9536423841059604,-0.119632557145909,-0.2359691152684103,21.125,10.6875,-13.8125
21.5,-0.244140625,-3.90625,-0.06103515625,-0.9525437177648244,-0.1328165532395397,-0.2271797845393231,21.125,9.9375,-16.8125
22.0,-3.662109375,1.5869140625,2.25830078125,-0.976714377269814,-0.0794701986754966,-0.1583300271614734,22.1875,11.8125,-14.25
22.5,3.662109375,7.4462890625,-3.7841796875,-0.9643848994415112,-0.1438032166508987,-0.2369457075716422,22.5625,12.1875,-10.0
23.0,8.7890625,2.38037109375,-0.6103515625,-0.9416791283913694,-0.1508835108493301,-0.2652668843653676,22.1875,12.1875,-13.8125
23.5,0.18310546875,0.79345703125,0.0,-0.9599902340769676,-0.1313516647846919,-0.2332834864345225,22.1875,13.375,-16.8125
24.0,-6.9580078125,-0.732421875,-4.0283203125,-0.9505905331583604,-0.1472212897122104,-0.2439039277321695,20.875,12.5625,-10.875
24.5,5.126953125,2.0751953125,1.89208984375,-0.956816309091464,-0.1314737388225959,-0.2336497085482345,21.125,13.375,-13.8125
25.0,1.3427734375,1.03759765625,0.3662109375,-0.9493697927793208,-0.151371807000946,-0.2485427411725211,21.5,12.1875,-13.375
25.5,0.3662109375,0.30517578125,1.15966796875,-0.9521774956511124,-0.141117587817011,-0.2475661488692892,22.5625,11.4375,-13.0
26.0,-0.9765625,-0.06103515625,-1.15966796875,-0.9516891994994964,-0.1376995147556993,-0.2458571123386334,22.5625,12.5625,-12.5
26.5,4.2724609375,1.28173828125,1.64794921875,-0.9525437177648244,-0.1389202551347392,-0.2479323709830012,24.3125,13.0,-10.0
27.0,-1.220703125,-0.30517578125,-1.220703125,-0.9529099398785364,-0.151982177190466,-0.2550126651814325,22.9375,11.4375,-10.875
27.5,0.48828125,-0.54931640625,0.732421875,-0.9537644581438642,-0.1336710715048677,-0.2481765190588091,22.9375,13.375,-15.9375
28.0,2.01416015625,0.9765625,0.732421875,-0.9488814966277048,-0.1497848445081942,-0.250129703665273,21.875,11.4375,-14.6875
28.5,0.9765625,-0.06103515625,-0.06103515625,-0.9503463850825524,-0.151860103152562,-0.2585528122806482,21.875,12.5625,-9.5625
29.0,-1.40380859375,-0.30517578125,-1.03759765625,-0.9499801629688406,-0.1530808435316019,-0.2524491103854487,22.9375,11.4375,-11.75
29.5,-0.30517578125,0.54931640625,0.79345703125,-0.9553514206366162,-0.1439252906888027,-0.2529374065370647,21.875,11.4375,-14.25
30.0,0.30517578125,0.1220703125,0.0,-0.9504684591204564,-0.151982177190466,-0.2551347392193365,23.25,12.1875,-10.0
30.5,1.40380859375,0.9765625,0.0,-0.9483932004760888,-0.1604052858058412,-0.2581865901669362,25.0,12.5625,-7.9375
31.0,-0.06103515625,0.06103515625,0.18310546875,-0.9480269783623768,-0.1510055848872341,-0.2578203680532243,23.25,12.5625,-13.375
31.5,-0.48828125,0.1220703125,0.30517578125,-0.9471724600970488,-0.1461226233710745,-0.2574541459395123,21.5,11.8125,-12.5
32.0,-0.18310546875,-0.30517578125,0.42724609375,-0.9529099398785364,-0.1456343272194586,-0.2535477767265847,22.9375,13.0,-11.6875
32.5,0.18310546875,-0.42724609375,-0.1220703125,-0.9527878658406324,-0.1417279580065309,-0.2598956266975921,22.5625,12.5625,-13.0
33.0,-17.822265625,-8.11767578125,2.5634765625,-0.9541306802575762,-0.1372112186040833,-0.2247383037812433,21.875,13.375,-15.5
33.5,5.37109375,7.38525390625,-1.953125,-0.9493697927793208,-0.1180455946531571,-0.2185125278481399,21.875,12.1875,-12.125
34.0,-2.5634765625,-4.5166015625,0.42724609375,-0.954618976409192,-0.1473433637501144,-0.2237617114780114,20.5,12.5625,-16.8125
34.5,5.43212890625,21.1181640625,-2.197265625,-0.9721976378673666,-0.1032746360667745,-0.2464674825281533,23.9375,11.4375,-11.75
35.0,-3.41796875,4.5166015625,-7.4462890625,-0.9253212073122348,-0.1075472273934141,-0.3709830011902219,23.625,12.1875,-10.0
35.5,-20.1416015625,-24.10888671875,6.16455078125,-0.9725638599810784,-0.0960722678304391,-0.1251258888515884,22.1875,11.0625,-13.0
36.0,23.13232421875,6.7138671875,-6.04248046875,-0.9884334849085972,-0.0058595538193914,-0.184698019348735,21.875,12.5625,-14.25
36.5,-3.0517578125,-1.46484375,1.15966796875,-0.9645069734794152,-0.1253700369273964,-0.2116763817255165,22.5625,11.4375,-12.5
37.0,7.14111328125,5.2490234375,-0.67138671875,-0.9753715628528704,-0.107669301431318,-0.2150944547868282,22.1875,12.5625,-13.375
37.5,-8.11767578125,-1.708984375,-0.732421875,-0.955717642750328,-0.1212195196386608,-0.2595294045838801,21.5,11.0625,-11.75
38.0,13.0615234375,5.7373046875,-8.11767578125,-0.9803765984069338,-0.053712576677755,-0.2307199316385387,22.1875,11.8125,-12.125
38.5,-0.6103515625,-1.03759765625,-1.5869140625,-0.9442426831873532,-0.1492965483565782,-0.2852870265816217,22.1875,12.1875,-13.0
39.0,0.3662109375,0.06103515625,0.244140625,-0.9392376476332897,-0.1463667714468825,-0.2979827265236366,21.875,14.4375,-10.4375
39.5,-3.7841796875,-2.197265625,2.44140625,-0.945707571642201,-0.1431928464613788,-0.3031098361156041,23.25,13.6875,-10.4375
40.0,-6.28662109375,0.48828125,-6.65283203125,-0.9461958677938168,-0.152226325266274,-0.2692953276161992,22.5625,16.6875,-9.5625
40.5,2.86865234375,-1.953125,6.9580078125,-0.9428998687704092,-0.1118198187200537,-0.2879726554155095,22.5625,14.0625,-9.5625
41.0,-0.91552734375,-2.9296875,-2.74658203125,-0.9319132053590504,-0.162968840601825,-0.3161717581713309,22.1875,13.6875,-15.5
41.5,0.1220703125,0.79345703125,0.54931640625,-0.9538865321817682,-0.1339152195806756,-0.250129703665273,22.9375,15.9375,-14.6875
42.0,1.220703125,0.244140625,0.9765625,-0.9518112735374004,-0.1395306253242591,-0.2653889584032716,20.125,13.0,-13.375
42.5,-0.1220703125,0.54931640625,-0.1220703125,-0.945951719718009,-0.1273232215338602,-0.271858882412183,22.9375,12.5625,-11.25
43.0,0.244140625,0.1220703125,0.1220703125,-0.9483932004760888,-0.129642628254036,-0.2684408093508713,22.1875,13.0,-10.875
43.5,-0.244140625,0.1220703125,0.1220703125,-0.9513229773857844,-0.1282998138370921,-0.2700277718436231,22.5625,14.0625,-11.25
44.0,0.06103515625,0.30517578125,-0.06103515625,-0.9480269783623768,-0.1284218878749962,-0.271248512222663,24.3125,15.5625,-14.25
44.5,-0.1220703125,0.1220703125,0.1220703125,-0.9498580889309366,-0.1272011474959563,-0.2738120670186468,21.5,15.1875,-11.25
45.0,12.5732421875,-17.39501953125,10.07080078125,-0.9619434186834316,-0.075807977538377,-0.2661214026306955,21.5,11.4375,-12.125
45.5,-1.77001953125,2.0751953125,0.30517578125,-0.9748832667012544,-0.1053498947111423,-0.1975157933286538,21.875,13.375,-11.75
46.0,-0.48828125,2.44140625,4.39453125,-0.923978392895291,-0.1047395245216223,-0.3427838984344005,22.9375,10.6875,-10.875
46.5,-0.79345703125,-6.53076171875,-0.8544921875,-0.9482711264381848,-0.0841090121158482,-0.3050630207220679,21.5,13.0,-16.8125
47.0,5.9814453125,-1.46484375,0.91552734375,-0.978789635914182,-0.0885036774803918,-0.2213202307199316,22.1875,13.6875,-16.8125
47.5,2.5634765625,-10.55908203125,-2.13623046875,-0.9949034089175084,-0.0936307870723593,-0.2215643787957396,21.5,10.6875,-15.5625
48.0,-2.38037109375,-1.03759765625,0.30517578125,-0.977935117648854,-0.1060823389385662,-0.173955504013184,21.875,11.8125,-19.3125
48.5,-11.29150390625,13.5498046875,-2.74658203125,-0.9651173436689352,-0.0699484237189855,-0.2399975585192419,22.5625,13.0,-13.0
49.0,0.18310546875,-4.21142578125,-2.74658203125,-0.9319132053590504,-0.1866512039551988,-0.2900479140598773,20.875,14.4375,-11.75
49.5,2.13623046875,-0.244140625,1.708984375,-0.9487594225898008,-0.1180455946531571,-0.2316965239417706,21.125,13.6875,-13.0
50.0,-0.244140625,0.8544921875,4.0283203125,-0.945463423566393,-0.1663869136631366,-0.2617267372661519,21.5,13.0,-11.75
50.5,0.42724609375,0.91552734375,0.48828125,-0.9372844630268258,-0.1652882473220008,-0.2855311746574297,21.875,13.6875,-13.375
51.0,0.8544921875,0.6103515625,2.13623046875,-0.9366740928373058,-0.1724906155583361,-0.2949308755760368,22.9375,12.5625,-9.1875
51.5,2.50244140625,-0.30517578125,-2.9296875,-0.9714651936399428,-0.075319681386761,-0.2419507431257057,21.875,13.0,-12.5
52.0,-2.99072265625,2.99072265625,-2.50244140625,-0.954985198522904,-0.075930051576281,-0.2480544450209051,22.1875,13.375,-8.3125
52.5,-5.0048828125,-4.57763671875,7.080078125,-0.957060457167272,-0.1198767052217169,-0.2153386028626361,22.9375,14.0625,-12.125
53.0,3.5400390625,0.3662109375,0.48828125,-0.9819635608996856,-0.0532242805261391,-0.2025208288827173,21.125,13.0,-13.0
53.5,-7.32421875,2.62451171875,-1.77001953125,-0.956450086977752,-0.1170690023499252,-0.2779625843073824,22.1875,14.0625,-13.0
54.0,1.15966796875,-0.30517578125,1.8310546875,-0.9553514206366162,-0.1199987792596209,-0.2562334055604724,22.1875,13.0,-15.0625
54.5,-0.3662109375,0.18310546875,-0.30517578125,-0.9471724600970488,-0.1219519638660847,-0.2661214026306955,22.1875,14.4375,-12.125
55.0,-0.06103515625,-0.06103515625,-0.06103515625,-0.9536423841059604,-0.1241492965483565,-0.2645344401379436,22.1875,13.0,-10.875
55.5,0.6103515625,-0.18310546875,-0.1220703125,-0.9498580889309366,-0.1290322580645161,-0.2736899929807428,21.5,12.5625,-12.125
56.0,0.0,0.42724609375,0.244140625,-0.9518112735374004,-0.1257362590411084,-0.2653889584032716,22.1875,12.5625,-13.375
56.5,-0.3662109375,-1.40380859375,1.46484375,-0.9497360148930326,-0.1311075167088839,-0.2473220007934812,22.5625,14.8125,-9.5625
57.0,0.18310546875,0.3662109375,-0.18310546875,-0.9521774956511124,-0.1261024811548204,-0.2635578478347117,22.1875,13.6875,-10.875
57.5,0.0,0.1220703125,0.18310546875,-0.9516891994994964,-0.118655964842677,-0.2667317728202155,21.125,14.0625,-14.6875
58.0,0.42724609375,-0.1220703125,0.30517578125,-0.9497360148930326,-0.119144260994293,-0.2638019959105197,22.1875,13.375,-10.875
58.5,-0.18310546875,0.0,-0.1220703125,-0.9486373485518969,-0.1197546311838129,-0.2661214026306955,23.25,14.0625,-13.375
59.0,-0.06103515625,-0.30517578125,-0.48828125,-0.9509567552720724,-0.1292764061403241,-0.2644123661000396,21.875,14.0625,-11.25
59.5,0.0,0.1220703125,0.06103515625,-0.9491256447035128,-0.1268349253822443,-0.2613605151524399,22.1875,14.8125,-11.75
60.0,-0.06103515625,0.30517578125,0.30517578125,-0.9494918668172246,-0.1232947782830286,-0.2670979949339274,22.1875,13.6875,-13.0
60.5,-0.06103515625,0.18310546875,0.42724609375,-0.9477828302865688,-0.1201208532975249,-0.2670979949339274,23.9375,12.5625,-10.875
61.0,-0.1220703125,-0.06103515625,0.06103515625,-0.9505905331583604,-0.1246375926999725,-0.2629474776451918,22.5625,13.375,-11.25
61.5,0.0,-0.06103515625,0.18310546875,-0.9518112735374004,-0.1243934446241645,-0.2670979949339274,22.5625,13.0,-10.875
62.0,0.244140625,0.0,0.18310546875,-0.9504684591204564,-0.1228064821314127,-0.2673421430097354,21.5,13.6875,-12.5
62.5,-0.48828125,0.06103515625,0.18310546875,-0.955107272560808,-0.1217078157902768,-0.2589190343943602,23.25,13.6875,-8.3125
63.0,0.1220703125,0.3662109375,0.1220703125,-0.9508346812341684,-0.1242713705862605,-0.2578203680532243,23.25,13.0,-11.75
63.5,0.06103515625,0.18310546875,0.1220703125,-0.9504684591204564,-0.1251258888515884,-0.2695394756920072,22.1875,13.6875,-14.6875
64.0,0.0,0.06103515625,0.06103515625,-0.9507126071962644,-0.1231727042451246,-0.2659993285927915,21.5,13.6875,-12.125
64.5,-0.244140625,0.06103515625,0.18310546875,-0.9492477187414168,-0.1263466292306283,-0.2672200689718314,22.1875,13.0,-13.8125
65.0,-0.244140625,-0.18310546875,0.48828125,-0.9480269783623768,-0.1204870754112369,-0.2684408093508713,22.9375,14.8125,-9.5625
65.5,-0.244140625,0.0,0.1220703125,-0.9514450514236884,-0.1237830744346446,-0.2642902920621356,22.5625,13.6875,-10.0
66.0,0.18310546875,-0.06103515625,-0.1220703125,-0.9486373485518969,-0.1242713705862605,-0.2581865901669362,23.25,13.0,-13.0
66.5,0.18310546875,0.0,-0.1220703125,-0.9496139408551286,-0.1239051484725486,-0.2690511795403912,23.25,13.0,-11.75
67.0,0.18310546875,0.18310546875,0.18310546875,-0.9483932004760888,-0.1239051484725486,-0.2710043641468551,22.1875,13.0,-14.25
67.5,0.0,0.0,0.18310546875,-0.9474166081728568,-0.1220740379039887,-0.2647785882137516,20.875,12.5625,-13.8125
68.0,-0.1220703125,-0.1220703125,0.1220703125,-0.9530320139164404,-0.1256141850032044,-0.2670979949339274,22.1875,13.375,-7.4375
68.5,0.30517578125,-0.244140625,0.0,-0.9526657918027284,-0.1239051484725486,-0.2668538468581194,22.9375,15.1875,-15.0625
69.0,0.0,-0.244140625,0.18310546875,-0.9531540879543444,-0.1235389263588366,-0.2673421430097354,23.25,13.0,-12.5
69.5,0.30517578125,-0.1220703125,0.0,-0.9513229773857844,-0.1311075167088839,-0.2616046632282479,21.875,14.0625,-10.875
70.0,-0.6103515625,0.06103515625,0.30517578125,-0.9536423841059604,-0.1282998138370921,-0.2657551805169835,21.125,12.1875,-14.6875
70.5,-0.1220703125,-0.1220703125,0.0,-0.9497360148930326,-0.1268349253822443,-0.2684408093508713,22.9375,15.5625,-13.0
71.0,-0.1220703125,0.0,0.18310546875,-0.9496139408551286,-0.1285439619129001,-0.2673421430097354,20.5,12.1875,-10.875
71.5,-0.42724609375,-0.54931640625,-0.6103515625,-0.9529099398785364,-0.1270790734580523,-0.2647785882137516,22.5625,13.6875,-13.0
72.0,-0.42724609375,-0.06103515625,0.42724609375,-0.954618976409192,-0.1252479628894924,-0.2630695516830958,21.5,13.375,-14.25
72.5,-0.06103515625,0.67138671875,0.0,-0.9503463850825524,-0.1276894436475722,-0.2617267372661519,22.1875,15.1875,-13.0
73.0,-0.244140625,0.48828125,0.244140625,-0.9505905331583604,-0.129398480178228,-0.2696615497299112,22.1875,13.375,-10.875
73.5,0.18310546875,0.30517578125,0.79345703125,-0.9498580889309366,-0.130008850367748,-0.2663655507065035,22.9375,13.6875,-10.875
74.0,0.0,-0.18310546875,-0.06103515625,-0.9514450514236884,-0.1263466292306283,-0.2669759208960234,23.25,14.0625,-12.125
74.5,-0.244140625,0.244140625,0.18310546875,-0.9514450514236884,-0.1241492965483565,-0.2627033295693838,21.875,13.0,-12.125
75.0,0.30517578125,-0.18310546875,0.18310546875,-0.9496139408551286,-0.1241492965483565,-0.2700277718436231,22.5625,14.4375,-11.25
75.5,0.30517578125,0.06103515625,0.244140625,-0.9519333475753043,-0.1285439619129001,-0.2673421430097354,22.1875,13.6875,-12.625
76.0,-0.244140625,0.30517578125,0.1220703125,-0.9530320139164404,-0.1275673696096682,-0.2679525131992553,23.625,11.4375,-11.25
76.5,0.732421875,0.18310546875,0.3662109375,-0.9487594225898008,-0.1220740379039887,-0.2725913266396069,21.9375,14.4375,-11.25
77.0,0.8544921875,-0.1220703125,0.30517578125,-0.9522995696890164,-0.1263466292306283,-0.2677083651234473,21.875,14.4375,-13.375
77.5,-1.03759765625,-0.48828125,-0.48828125,-0.9503463850825524,-0.1270790734580523,-0.2642902920621356,20.5,14.0625,-13.0
78.0,-0.06103515625,0.18310546875,0.30517578125,-0.9510788293099764,-0.1219519638660847,-0.2640461439863277,23.25,13.6875,-10.4375
78.5,0.3662109375,-0.18310546875,0.30517578125,-0.9514450514236884,-0.1242713705862605,-0.2624591814935758,22.9375,13.6875,-13.8125
79.0,-0.244140625,0.1220703125,0.18310546875,-0.9510788293099764,-0.1248817407757805,-0.2634357737968077,22.9375,14.0625,-13.8125
79.5,0.67138671875,-0.06103515625,0.0,-0.9470503860591448,-0.1226844080935087,-0.2690511795403912,22.1875,13.375,-8.3125
80.0,0.06103515625,0.0,0.1220703125,-0.9486373485518969,-0.1250038148136845,-0.2686849574266793,22.9375,12.5625,-15.5
80.5,0.30517578125,-0.06103515625,0.1220703125,-0.9530320139164404,-0.1274452955717642,-0.2625812555314798,23.9375,10.6875,-13.0
81.0,-0.1220703125,-0.06103515625,0.1220703125,-0.9505905331583604,-0.1270790734580523,-0.2652668843653676,22.5625,12.5625,-13.375
81.5,-0.06103515625,-0.18310546875,0.06103515625,-0.9481490524002808,-0.1264687032685323,-0.2667317728202155,22.9375,13.375,-10.875
82.0,-0.48828125,0.06103515625,-0.06103515625,-0.9524216437269204,-0.1254921109653004,-0.2705160679952391,22.9375,14.4375,-12.5
82.5,-0.06103515625,0.3662109375,0.06103515625,-0.9501022370067446,-0.1267128513443403,-0.271370586260567,22.1875,13.0,-10.4375
83.0,0.1220703125,0.1220703125,0.1220703125,-0.9527878658406324,-0.1234168523209326,-0.271492660298471,21.5,13.0,-11.75
83.5,0.0,0.06103515625,0.0,-0.9486373485518969,-0.1232947782830286,-0.2697836237678152,22.5625,13.6875,-13.0
84.0,0.244140625,0.18310546875,-0.06103515625,-0.9493697927793208,-0.1253700369273964,-0.2688070314645833,21.875,14.0625,-12.125
84.5,0.30517578125,0.244140625,0.48828125,-0.9496139408551286,-0.1262245551927243,-0.2700277718436231,23.25,14.0625,-13.375
85.0,-7.50732421875,-4.69970703125,0.48828125,-0.9325235755485702,-0.1650440992461928,-0.249763481551561,21.5,12.1875,-13.375
85.5,0.1220703125,-7.14111328125,2.86865234375,-0.977690969573046,-0.1134067812128055,-0.1453901791436506,22.5625,12.1875,-12.5
86.0,-2.38037109375,24.71923828125,-5.0048828125,-0.9580370494705038,-0.1385540330210272,-0.2802819910275582,22.5625,13.375,-15.5625
86.5,1.15966796875,-2.197265625,-0.42724609375,-0.9372844630268258,-0.0919217505417035,-0.3393658253730888,21.5,13.6875,-15.5625
87.0,-10.7421875,2.62451171875,6.4697265625,-0.9649952696310312,-0.0393078402050843,-0.2202215643787957,21.125,14.8125,-11.25
87.5,-2.44140625,4.8828125,-3.47900390625,-0.945951719718009,-0.129642628254036,-0.2525711844233527,22.9375,12.5625,-10.4375
88.0,1.03759765625,0.48828125,1.15966796875,-0.9585253456221198,-0.1337931455427717,-0.2404858546708578,22.1875,13.375,-13.375
88.5,6.89697265625,3.84521484375,-1.28173828125,-0.9737846003601184,-0.0693380535294656,-0.217413861507004,21.1875,12.1875,-16.4375
89.0,2.62451171875,-2.01416015625,3.72314453125,-0.9708548234504228,-0.0731223487044892,-0.1980040894802698,22.1875,13.0,-16.3125
89.5,-11.3525390625,7.99560546875,-3.72314453125,-0.9065218054750206,-0.2374340037232581,-0.3343607898190252,21.125,14.0625,-13.375
90.0,0.30517578125,0.79345703125,0.732421875,-0.9529099398785364,-0.1353801080355235,-0.2551347392193365,22.1875,13.375,-12.125
90.5,-0.48828125,0.30517578125,0.0,-0.9507126071962644,-0.1350138859218115,-0.2552568132572405,22.1875,14.4375,-16.3125
91.0,0.06103515625,0.48828125,0.3662109375,-0.9493697927793208,-0.1333048493911557,-0.2617267372661519,22.5625,13.375,-14.25
91.5,-0.18310546875,0.06103515625,0.30517578125,-0.9520554216132084,-0.130252998443556,-0.2631916257209998,21.1875,10.3125,-12.125
92.0,-0.06103515625,0.0,-0.48828125,-0.9466841639454328,-0.1361125522629474,-0.2624591814935758,20.875,13.0,-13.8125
92.5,0.6103515625,0.1220703125,0.18310546875,-0.9501022370067446,-0.1324503311258278,-0.2725913266396069,22.1875,13.6875,-9.1875
93.0,0.244140625,0.06103515625,0.54931640625,-0.9514450514236884,-0.129398480178228,-0.2619708853419599,21.1875,13.375,-15.0625
93.5,-1.15966796875,-0.8544921875,2.44140625,-0.9525437177648244,-0.1397747734000671,-0.2587969603564561,23.9375,12.5625,-13.375
94.0,1.0986328125,3.23486328125,-2.0751953125,-0.933378093813898,-0.1695608386486404,-0.3084810937833796,21.5,14.0625,-13.375
94.5,0.3662109375,0.0,0.67138671875,-0.9435102389599292,-0.1481978820154423,-0.2841883602404859,21.1875,12.5625,-10.875
95.0,-1.708984375,0.1220703125,-0.6103515625,-0.9471724600970488,-0.1425824762718588,-0.2749107333597827,22.1875,13.0,-10.875
95.5,-0.3662109375,-0.244140625,-0.9765625,-0.9410687582018494,-0.152226325266274,-0.2797936948759422,21.1875,13.0,-13.375
96.0,-0.3662109375,0.6103515625,0.3662109375,-0.9430219428083132,-0.1505172887356181,-0.2813806573686941,20.5,12.1875,-10.875
96.5,0.3662109375,0.244140625,0.1220703125,-0.9430219428083132,-0.1491744743186742,-0.2791833246864223,22.5625,12.5625,-10.875
97.0,-0.18310546875,0.3662109375,-0.3662109375,-0.9422894985808892,-0.1525925473799859,-0.2804040650654622,21.5,14.0625,-11.75
97.5,-0.18310546875,-0.06103515625,-0.244140625,-0.9446089053010652,-0.1512497329630421,-0.2816248054445021,21.5,13.0,-11.25
98.0,0.42724609375,-0.18310546875,0.1220703125,-0.9411908322397534,-0.1523483993041779,-0.2782067323831904,22.1875,14.0625,-10.0
98.5,-0.18310546875,0.1220703125,0.0,-0.9385052034058656,-0.1538132877590258,-0.2806482131412702,22.1875,13.0,-10.875
99.0,-0.06103515625,0.0,0.06103515625,-0.9411908322397534,-0.15210425122837,-0.2849208044679098,20.875,13.375,-13.0
99.5,0.30517578125,-0.06103515625,0.1220703125,-0.9405804620502336,-0.1507614368114261,-0.2874843592638935,21.5,13.6875,-7.0625
100.0,0.0,-0.1220703125,0.18310546875,-0.9400921658986175,-0.1501510666219062,-0.28247932370983,21.875,14.4375,-9.1875
100.5,-0.1220703125,0.0,0.06103515625,-0.9421674245429852,-0.1560106204412976,-0.2851649525437177,21.875,13.6875,-13.8125
101.0,0.30517578125,-0.54931640625,0.244140625,-0.9419232764671772,-0.151860103152562,-0.2812585833307901,21.875,14.0625,-11.75
101.5,-0.1220703125,0.06103515625,-0.06103515625,-0.9402142399365216,-0.1458784752952665,-0.2815027314065981,22.9375,11.8125,-12.625
102.0,0.6103515625,0.8544921875,0.732421875,-0.9447309793389692,-0.1593066194647053,-0.2790612506485183,23.25,11.8125,-13.0
102.5,2.197265625,-0.06103515625,0.91552734375,-0.9399700918607136,-0.1637012848292489,-0.2784508804589984,23.625,10.6875,-14.6875
103.0,11.71875,3.662109375,5.31005859375,-0.9313028351695304,-0.1784722434156316,-0.281991027558214,21.875,11.8125,-11.25
103.5,-1.40380859375,-0.30517578125,-0.6103515625,-0.945219275490585,-0.1287881099887081,-0.2894375438703573,22.1875,11.8125,-13.375
104.0,-6.53076171875,-4.33349609375,1.0986328125,-0.9403363139744256,-0.1689504684591204,-0.2800378429517502,23.625,13.0,-10.0
104.5,-4.39453125,1.15966796875,-5.18798828125,-0.9543748283333842,-0.119022186956389,-0.2688070314645833,22.5625,13.6875,-14.25
105.0,0.79345703125,0.18310546875,0.9765625,-0.9432660908841212,-0.1380657368694113,-0.2756431775872066,22.1875,13.0,-13.8125
105.5,-2.38037109375,-6.65283203125,4.08935546875,-0.9505905331583604,-0.1575975829340495,-0.2746665852839747,21.5,11.4375,-15.5625
106.0,-0.06103515625,-0.79345703125,0.30517578125,-0.979277932065798,-0.0744651631214331,-0.1939756462294381,21.9375,13.375,-11.75
106.5,23.8037109375,-2.74658203125,7.50732421875,-0.9509567552720724,-0.1534470656453138,-0.2241279335917234,21.9375,12.5625,-10.875
107.0,6.65283203125,-14.7705078125,-3.662109375,-0.9698782311471909,-0.1506393627735221,-0.2114322336497085,21.875,13.6875,-11.75
107.5,6.103515625,4.2724609375,-4.69970703125,-0.97964415417951,-0.0722678304391613,-0.1660206915494247,22.9375,12.5625,-10.875
108.0,-3.662109375,3.5400390625,-3.47900390625,-0.9461958677938168,-0.1618701742606891,-0.2373119296853541,22.9375,13.0,-13.0
108.5,0.91552734375,0.6103515625,1.5869140625,-0.9631641590624714,-0.1142612994781334,-0.2570879238258003,21.875,11.4375,-10.0
109.0,-0.3662109375,-0.18310546875,0.3662109375,-0.95730460524308,-0.1282998138370921,-0.249275185399945,21.1875,11.0625,-12.125
109.5,0.48828125,0.18310546875,0.30517578125,-0.9518112735374004,-0.1311075167088839,-0.2551347392193365,22.5625,12.1875,-14.6875
110.0,-0.67138671875,0.54931640625,0.48828125,-0.9530320139164404,-0.1247596667378765,-0.2556230353709525,22.9375,11.0625,-11.75
110.5,0.732421875,0.3662109375,-0.67138671875,-0.9526657918027284,-0.1331827753532517,-0.2622150334177678,21.9375,12.1875,-9.5625
111.0,0.18310546875,0.1220703125,-0.06103515625,-0.9541306802575762,-0.13037507248146,-0.2580645161290322,22.9375,13.0,-13.375
111.5,-0.30517578125,0.42724609375,0.06103515625,-0.9519333475753043,-0.1279335917233802,-0.260017700735496,21.875,11.8125,-12.625
112.0,0.18310546875,0.30517578125,0.3662109375,-0.9531540879543444,-0.1253700369273964,-0.2631916257209998,22.9375,11.0625,-12.125
112.5,0.42724609375,0.1220703125,0.1220703125,-0.9504684591204564,-0.1254921109653004,-0.2685628833887753,20.5,11.8125,-11.25
113.0,0.0,0.06103515625,0.244140625,-0.9515671254615924,-0.1290322580645161,-0.2675862910855434,22.1875,12.1875,-10.4375
113.5,-0.1220703125,0.18310546875,-0.06103515625,-0.9502243110446486,-0.1286660359508041,-0.2649006622516556,20.5,13.375,-12.125
114.0,-0.30517578125,0.0,0.06103515625,-0.9509567552720724,-0.1309854426709799,-0.2662434766685995,22.1875,11.0625,-14.6875
114.5,0.1220703125,0.0,0.06103515625,-0.9494918668172246,-0.1258583330790124,-0.2618488113040559,22.9375,8.8125,-8.3125
115.0,0.244140625,0.06103515625,0.1220703125,-0.9508346812341684,-0.1259804071169164,-0.2673421430097354,23.25,13.375,-13.8125
115.5,-0.06103515625,0.1220703125,0.18310546875,-0.9496139408551286,-0.1250038148136845,-0.2696615497299112,22.5625,12.1875,-12.5
116.0,0.18310546875,-0.18310546875,0.244140625,-0.9488814966277048,-0.1269569994201483,-0.2691732535782952,24.3125,12.5625,-14.6875
116.5,0.0,-0.30517578125,0.06103515625,-0.9485152745139928,-0.1314737388225959,-0.2684408093508713,21.875,11.8125,-13.0
117.0,-12.63427734375,-3.84521484375,4.57763671875,-0.9493697927793208,-0.1309854426709799,-0.2528153324991607,23.25,12.1875,-10.0
117.5,3.60107421875,-3.60107421875,2.86865234375,-0.9522995696890164,-0.1392864772484512,-0.303842280343028,22.1875,13.0,-14.6875
118.0,6.16455078125,-20.751953125,3.11279296875,-0.9745170445875424,-0.1118198187200537,-0.1668752098147526,20.125,11.8125,-15.9375
118.5,0.9765625,-1.03759765625,-0.244140625,-0.9809869685964536,-0.1201208532975249,-0.0953398236030152,21.875,13.0,-15.0625
119.0,-10.31494140625,23.98681640625,-1.0986328125,-0.968169194616535,-0.1147495956297494,-0.2109439374980926,20.5,14.0625,-13.8125
119.5,-6.4697265625,-1.5869140625,-6.4697265625,-0.9829401532029176,-0.0847193823053682,-0.2131412701803643,22.9375,14.0625,-10.4375
120.0,-6.77490234375,0.1220703125,-6.9580078125,-0.9262977996154668,-0.2144840845973082,-0.2901699880977813,21.1875,14.8125,-15.5625
120.5,-7.62939453125,-3.35693359375,0.732421875,-0.9105502487258522,-0.2519608142338328,-0.336313974425489,22.5625,11.0625,-14.25
121.0,-4.2724609375,-6.89697265625,15.625,-0.955839716788232,-0.1138950773644215,-0.2120426038392285,21.875,13.0,-16.4375
121.5,-2.685546875,7.8125,-4.08935546875,-0.9703665272988068,-0.0942411572618793,-0.206549272133549,21.5,13.375,-17.6875
122.0,-7.9345703125,-12.20703125,1.8310546875,-0.9883114108706932,-0.0587176122318185,-0.1375774407177953,21.875,11.8125,-14.25
122.5,10.92529296875,8.544921875,-0.67138671875,-0.957182531205176,-0.0927762688070314,-0.2854091006195257,21.9375,14.0625,-12.625
123.0,18.310546875,10.55908203125,-9.70458984375,-0.9833063753166296,-0.0942411572618793,-0.1643116550187688,22.9375,14.4375,-13.8125
123.5,0.1220703125,2.8076171875,-0.48828125,-0.9480269783623768,-0.1561326944792016,-0.2662434766685995,21.5625,15.5625,-11.75
124.0,1.64794921875,0.79345703125,0.30517578125,-0.9436323129978332,-0.151738029114658,-0.2844325083162938,21.5,13.0,-10.875
124.5,1.64794921875,0.30517578125,1.0986328125,-0.9428998687704092,-0.1632129886776329,-0.2749107333597827,21.875,13.0,-12.625
125.0,-1.0986328125,-1.15966796875,-1.40380859375,-0.945707571642201,-0.162236396374401,-0.2684408093508713,20.875,13.6875,-13.0
125.5,-0.732421875,-0.18310546875,-0.18310546875,-0.9436323129978332,-0.162480544450209,-0.2703939939573351,21.875,15.5625,-10.4375
126.0,0.0,0.18310546875,-0.1220703125,-0.9405804620502336,-0.1690725424970244,-0.2768639179662465,21.1875,15.1875,-11.25
126.5,0.0,0.42724609375,-0.1220703125,-0.9420453505050812,-0.1680959501937925,-0.2752769554734947,21.875,14.0625,-14.25
127.0,-0.3662109375,0.18310546875,0.3662109375,-0.9414349803155614,-0.1668752098147526,-0.2857753227332377,21.875,14.8125,-9.5625
127.5,0.54931640625,-0.1220703125,0.06103515625,-0.9425336466566973,-0.1496627704702902,-0.2858973967711417,23.25,14.4375,-13.0
128.0,0.48828125,0.244140625,0.54931640625,-0.9428998687704092,-0.1594286935026093,-0.2812585833307901,23.625,13.375,-12.625
128.5,0.06103515625,-0.30517578125,0.1220703125,-0.9402142399365216,-0.1594286935026093,-0.2766197698904385,22.9375,14.8125,-15.0625
129.0,0.06103515625,0.54931640625,0.42724609375,-0.9392376476332897,-0.1540574358348338,-0.2846766563921018,21.9375,13.375,-13.4375
129.5,0.1220703125,-0.06103515625,-0.54931640625,-0.9418012024292732,-0.1588183233130894,-0.2856532486953337,21.1875,16.6875,-12.5
130.0,-0.06103515625,-0.3662109375,-0.732421875,-0.9413129062776574,-0.1652882473220008,-0.2786950285348064,21.5625,14.4375,-12.625
130.5,0.30517578125,-0.1220703125,0.244140625,-0.9385052034058656,-0.1643116550187688,-0.28247932370983,22.5625,14.4375,-12.625
131.0,0.18310546875,0.244140625,0.1220703125,-0.9391155735953856,-0.1672414319284646,-0.2794274727622303,20.875,14.4375,-11.75
131.5,0.6103515625,0.06103515625,0.732421875,-0.9374065370647298,-0.1607715079195532,-0.282235175634022,22.1875,15.9375,-13.0
132.0,-0.30517578125,0.3662109375,0.1220703125,-0.9396038697470016,-0.1580858790856654,-0.2800378429517502,22.1875,13.375,-12.125
132.5,-0.48828125,0.54931640625,0.18310546875,-0.9425336466566973,-0.1571092867824335,-0.2866298409985656,21.5,13.375,-13.375
133.0,0.0,0.0,0.1220703125,-0.9389934995574816,-0.1617481002227851,-0.2872402111880855,21.875,15.5625,-13.0
133.5,0.1220703125,0.0,-0.1220703125,-0.9393597216711936,-0.1619922482985931,-0.2860194708090456,22.9375,14.0625,-12.625
134.0,-0.1220703125,0.1220703125,0.1220703125,-0.9427777947325052,-0.1591845454268013,-0.2847987304300058,22.1875,15.5625,-10.4375
134.5,0.0,0.18310546875,0.48828125,-0.9374065370647298,-0.162968840601825,-0.2846766563921018,22.1875,13.6875,-11.25
135.0,0.18310546875,-0.244140625,0.18310546875,-0.9397259437849056,-0.1605273598437452,-0.2813806573686941,21.875,14.0625,-12.125
135.5,0.30517578125,0.244140625,0.30517578125,-0.9420453505050812,-0.1589403973509933,-0.282601397747734,21.9375,14.4375,-10.875
136.0,0.0,0.06103515625,0.1220703125,-0.9407025360881376,-0.1600390636921292,-0.2902920621356853,22.1875,15.5625,-14.6875
136.5,0.1220703125,-0.06103515625,0.06103515625,-0.9413129062776574,-0.1586962492751853,-0.2834559160130619,22.5625,14.4375,-7.4375
137.0,0.18310546875,-0.18310546875,-0.06103515625,-0.9391155735953856,-0.1647999511703848,-0.2902920621356853,21.1875,14.4375,-10.4375
137.5,0.42724609375,-0.18310546875,0.244140625,-0.9403363139744256,-0.1599169896542253,-0.2878505813776055,22.9375,14.4375,-9.1875
138.0,0.06103515625,-0.18310546875,0.18310546875,-0.9378948332163456,-0.1613818781090731,-0.2862636188848537,22.9375,12.1875,-12.625
138.5,0.0,-0.18310546875,0.1220703125,-0.9386272774437696,-0.1604052858058412,-0.2850428785058138,23.25,15.9375,-12.625
139.0,0.3662109375,0.06103515625,0.244140625,-0.9391155735953856,-0.1596728415784173,-0.2849208044679098,21.5,14.4375,-13.0
139.5,0.48828125,-1.46484375,0.79345703125,-0.9410687582018494,-0.162358470412305,-0.2904141361735893,20.5,11.4375,-13.4375
140.0,13.36669921875,-10.25390625,5.43212890625,-0.9599902340769676,-0.1287881099887081,-0.1867732779931028,21.875,13.0,-17.6875
140.5,6.591796875,-0.30517578125,1.3427734375,-0.9653614917447432,-0.1392864772484512,-0.1860408337656788,21.5625,11.8125,-11.75
141.0,15.0146484375,20.8740234375,4.0283203125,-0.9652394177068392,-0.1204870754112369,-0.2452467421491134,23.25,13.375,-11.75
141.5,-6.77490234375,-5.7373046875,1.0986328125,-0.9494918668172246,-0.1202429273354289,-0.2987151707510605,21.5625,9.9375,-14.6875
142.0,-12.939453125,6.28662109375,6.28662109375,-0.9847712637714774,-0.0395519882808923,-0.1251258888515884,22.1875,11.8125,-16.8125
142.5,-10.80322265625,0.244140625,-4.21142578125,-0.967314676351207,-0.0917996765037995,-0.2520828882717368,21.875,13.375,-15.0625
143.0,-3.60107421875,-2.25830078125,4.33349609375,-0.9507126071962644,-0.1610156559953612,-0.2562334055604724,22.1875,13.0,-11.75
143.5,0.79345703125,1.52587890625,-0.6103515625,-0.9595019379253518,-0.1175572985015411,-0.2404858546708578,21.875,12.5625,-8.75
144.0,-14.5263671875,-7.50732421875,3.5400390625,-0.95669423505356,-0.1226844080935087,-0.2296212652974028,23.625,11.0625,-15.0625
144.5,-4.82177734375,-3.0517578125,-0.48828125,-0.9901425214392529,0.0057374797814874,-0.1915341654713583,20.875,11.0625,-13.8125
145.0,10.43701171875,4.150390625,-17.333984375,-0.9652394177068392,-0.1259804071169164,-0.2237617114780114,22.1875,14.0625,-11.25
145.5,-4.0283203125,0.244140625,1.52587890625,-0.9463179418317208,-0.1799371318704794,-0.2262031922360912,24.3125,11.8125,-7.9375
146.0,9.82666015625,23.13232421875,7.38525390625,-0.9957579271828364,-0.0281991027558214,-0.2653889584032716,21.1875,14.8125,-13.0
146.5,9.09423828125,1.953125,-4.2724609375,-0.91384624774926,-0.0875270851771599,-0.3520615253151036,21.5625,14.8125,-10.4375
147.0,-13.24462890625,7.8125,-7.75146484375,-0.936552018799402,-0.2106997894222846,-0.2269356364635151,21.9375,14.0625,-8.75
147.5,-3.23486328125,0.48828125,-0.42724609375,-0.9265419476912748,-0.2359691152684103,-0.2862636188848537,22.9375,14.4375,-10.4375
148.0,-0.67138671875,0.67138671875,0.30517578125,-0.9205603198339792,-0.2121646778771324,-0.3172704245124668,21.5625,14.4375,-10.0
148.5,-0.18310546875,-0.06103515625,0.42724609375,-0.9178746910000916,-0.2149723807489242,-0.3115329447309793,22.5625,14.4375,-10.875
149.0,7.6904296875,1.40380859375,4.638671875,-0.913357951597644,-0.2364574114200262,-0.3120212408825953,21.1875,13.6875,-12.125
149.5,-1.77001953125,0.244140625,-0.6103515625,-0.9266640217291788,-0.1886043885616626,-0.3066499832148198,22.5625,12.5625,-12.125
150.0,0.9765625,0.3662109375,1.28173828125,-0.924222540971099,-0.1997131260109256,-0.3167821283608508,21.1875,10.6875,-11.25
150.5,-24.169921875,-18.98193359375,14.46533203125,-0.978789635914182,-0.0611590929898983,-0.2153386028626361,21.875,12.5625,-15.0625
151.0,24.96337890625,13.85498046875,-18.85986328125,-0.9696340830713828,-0.0981475264748069,-0.228034302804651,22.1875,12.1875,-12.625
151.5,2.13623046875,-3.84521484375,3.23486328125,-0.9480269783623768,-0.1451460310678426,-0.2559892574846644,22.5625,9.9375,-20.125
152.0,-0.3662109375,-11.04736328125,7.4462890625,-0.9913632618182928,-0.0883816034424878,-0.1436811426129947,20.875,12.1875,-15.5625
152.5,-1.89208984375,-0.67138671875,-4.8828125,-0.9822077089754936,-0.1307412945951719,-0.1127964110232856,21.9375,13.375,-13.375
153.0,-7.99560546875,18.5546875,-6.7138671875,-0.9953917050691244,-0.1246375926999725,-0.1394085512863551,21.875,13.0,-12.125
153.5,-1.220703125,-2.86865234375,5.92041015625,-0.9658497878963592,-0.0809350871303445,-0.2679525131992553,21.875,13.375,-10.0
154.0,-0.1220703125,-2.62451171875,-3.96728515625,-0.9527878658406324,-0.1053498947111423,-0.2966399121066927,21.5625,13.6875,-12.625
154.5,3.23486328125,-4.2724609375,0.54931640625,-0.9537644581438642,-0.1063264870143742,-0.2485427411725211,22.9375,13.0,-18.5
155.0,-5.06591796875,-11.962890625,2.9296875,-0.9669484542374952,-0.0737327188940092,-0.1888485366374706,21.5625,13.375,-13.8125
155.5,19.287109375,10.6201171875,-0.30517578125,-0.9649952696310312,-0.0268562883388775,-0.2559892574846644,21.5625,14.4375,-12.125
156.0,-1.40380859375,2.3193359375,-1.64794921875,-0.9520554216132084,-0.1610156559953612,-0.2298654133732108,22.5625,13.6875,-14.25
156.5,-0.67138671875,0.732421875,-0.732421875,-0.95547349467452,-0.140751365703299,-0.2414624469740897,21.5,15.9375,-13.375
157.0,-0.18310546875,0.30517578125,-0.3662109375,-0.9525437177648244,-0.141117587817011,-0.2476882229071932,20.875,15.9375,-12.625
157.5,-0.79345703125,0.54931640625,0.1220703125,-0.9531540879543444,-0.1397747734000671,-0.260017700735496,21.1875,13.375,-13.375
158.0,-0.06103515625,0.06103515625,0.0,-0.9518112735374004,-0.1427045503097628,-0.2517166661580248,20.5,14.8125,-12.125
158.5,0.244140625,0.18310546875,-0.06103515625,-0.9542527542954802,-0.1400189214758751,-0.2517166661580248,21.5625,13.6875,-12.125
159.0,0.0,0.0,0.06103515625,-0.9503463850825524,-0.1422162541581469,-0.2548905911435285,21.875,15.9375,-11.25
159.5,-0.54931640625,0.3662109375,-0.1220703125,-0.9525437177648244,-0.1433149204992828,-0.2520828882717368,20.875,15.5625,-13.8125
160.0,0.30517578125,0.06103515625,0.1220703125,-0.9505905331583604,-0.1427045503097628,-0.2536698507644886,21.1875,13.0,-9.1875
160.5,0.06103515625,0.0,0.3662109375,-0.9491256447035128,-0.1428266243476668,-0.2556230353709525,21.1875,14.0625,-13.375
161.0,-0.06103515625,0.54931640625,0.30517578125,-0.9522995696890164,-0.1401409955137791,-0.2578203680532243,21.875,14.8125,-10.875
161.5,0.0,0.18310546875,-0.1220703125,-0.9488814966277048,-0.1424604022339549,-0.2578203680532243,20.875,13.0,-12.625
162.0,0.18310546875,0.1220703125,0.0,-0.9485152745139928,-0.1470992156743064,-0.2581865901669362,21.1875,15.9375,-10.875
162.5,-0.1220703125,0.0,0.0,-0.9514450514236884,-0.1449018829920346,-0.2592852565080721,21.5,13.0,-14.25
163.0,0.06103515625,0.18310546875,0.0,-0.9512009033478804,-0.1480758079775384,-0.2580645161290322,21.5625,13.375,-10.4375
163.5,0.1220703125,0.0,0.06103515625,-0.9499801629688406,-0.1458784752952665,-0.2533036286507767,21.9375,13.375,-11.75
164.0,0.06103515625,0.1220703125,0.1220703125,-0.9515671254615924,-0.1441694387646107,-0.2569658497878964,21.1875,15.1875,-13.8125
164.5,0.244140625,0.244140625,0.244140625,-0.9471724600970488,-0.1427045503097628,-0.2578203680532243,22.1875,16.3125,-9.1875
165.0,0.06103515625,-0.244140625,0.06103515625,-0.9499801629688406,-0.1463667714468825,-0.2567217017120883,21.1875,14.4375,-13.8125
165.5,0.1220703125,0.06103515625,0.1220703125,-0.9507126071962644,-0.1462446974089785,-0.2625812555314798,20.5,15.1875,-12.125
166.0,0.244140625,-4.150390625,3.90625,-0.9540086062196722,-0.1539353617969298,-0.2775963621936704,22.5625,11.4375,-13.375
166.5,11.16943359375,3.662109375,2.38037109375,-0.9482711264381848,-0.1048615985595263,-0.249519333475753,20.875,12.5625,-21.0
167.0,5.06591796875,-22.4609375,4.57763671875,-0.989288003173925,-0.0964384899441511,-0.1092562639240699,22.1875,11.0625,-14.25
167.5,-4.21142578125,0.79345703125,-1.708984375,-0.97781304361095,-0.1035187841425824,-0.0893581957457197,21.1875,11.0625,-14.25
168.0,7.080078125,0.18310546875,-2.62451171875,-0.9826960051271096,-0.0738547929319132,-0.2298654133732108,23.25,12.1875,-14.25
168.5,-0.42724609375,2.13623046875,-4.150390625,-0.95547349467452,-0.1540574358348338,-0.2375560777611621,20.5,11.8125,-13.0
169.0,2.50244140625,-0.30517578125,1.03759765625,-0.989165929136021,-0.0632343516342661,-0.1795709097567674,22.5625,14.0625,-8.75
169.5,-7.99560546875,1.8310546875,-0.8544921875,-0.9444868312631612,-0.1062044129764702,-0.2551347392193365,21.1875,14.0625,-15.0625
170.0,-0.1220703125,1.0986328125,0.30517578125,-0.9585253456221198,-0.1162144840845973,-0.238776818140202,22.9375,14.8125,-12.625
170.5,-0.6103515625,0.9765625,0.244140625,-0.9618213446455276,-0.1254921109653004,-0.2399975585192419,23.625,12.1875,-13.0
171.0,0.30517578125,0.06103515625,-0.18310546875,-0.9618213446455276,-0.1253700369273964,-0.2412182988982818,22.25,13.375,-12.125
171.5,0.30517578125,0.42724609375,0.0,-0.9498580889309366,-0.129886776329844,-0.2556230353709525,24.3125,13.0,-12.625
172.0,0.9765625,2.44140625,-0.54931640625,-0.9328897976622822,-0.1900692770165105,-0.2795495468001343,21.9375,12.1875,-12.625
172.5,2.5634765625,0.732421875,1.52587890625,-0.9510788293099764,-0.1341593676564836,-0.2618488113040559,21.875,12.5625,-15.0625
173.0,0.18310546875,0.244140625,-0.06103515625,-0.9472945341349528,-0.1385540330210272,-0.2590411084322642,22.5625,14.0625,-13.0
173.5,-0.1220703125,0.0,0.06103515625,-0.9515671254615924,-0.1385540330210272,-0.2567217017120883,20.5,13.0,-13.375
174.0,-0.18310546875,0.18310546875,0.244140625,-0.9494918668172246,-0.140629291665395,-0.2575762199774163,22.1875,12.1875,-9.1875
174.5,0.0,-0.06103515625,0.0,-0.9491256447035128,-0.1438032166508987,-0.2627033295693838,20.125,13.6875,-14.6875
175.0,-0.30517578125,-0.42724609375,0.42724609375,-0.9479049043244728,-0.1440473647267067,-0.2617267372661519,22.5625,13.0,-13.0
175.5,0.1220703125,0.1220703125,0.06103515625,-0.9491256447035128,-0.1430707724234748,-0.2591631824701682,22.9375,13.375,-11.25
176.0,0.30517578125,0.18310546875,-0.06103515625,-0.9520554216132084,-0.1400189214758751,-0.2575762199774163,21.9375,14.4375,-13.4375
176.5,-0.79345703125,0.1220703125,0.18310546875,-0.9475386822107608,-0.1440473647267067,-0.2638019959105197,21.1875,12.5625,-13.0
177.0,0.244140625,0.0,-0.244140625,-0.9488814966277048,-0.1460005493331705,-0.2598956266975921,22.9375,10.6875,-14.6875
177.5,-0.06103515625,0.0,0.18310546875,-0.9501022370067446,-0.1440473647267067,-0.2644123661000396,21.5625,13.375,-13.0
178.0,0.48828125,-0.18310546875,-0.244140625,-0.9460737937559128,-0.1439252906888027,-0.2618488113040559,22.9375,12.5625,-11.25
178.5,0.0,-0.18310546875,0.06103515625,-0.9519333475753043,-0.1424604022339549,-0.2634357737968077,21.875,12.5625,-14.25
179.0,0.30517578125,-0.06103515625,0.1220703125,-0.9531540879543444,-0.1447798089541306,-0.2624591814935758,22.25,12.5625,-13.8125
179.5,-0.48828125,-0.18310546875,0.244140625,-0.9468062379833369,-0.1422162541581469,-0.260872219000824,20.5,13.0,-11.25
180.0,1.15966796875,-0.18310546875,-0.54931640625,-0.9430219428083132,-0.1456343272194586,-0.2630695516830958,22.25,14.8125,-12.625
180.5,0.06103515625,0.18310546875,0.06103515625,-0.9448530533768732,-0.1488082522049623,-0.2570879238258003,21.9375,12.5625,-13.0
181.0,-0.18310546875,0.3662109375,0.67138671875,-0.9466841639454328,-0.1501510666219062,-0.2649006622516556,21.875,12.5625,-11.75
181.5,0.0,-0.42724609375,0.06103515625,-0.9480269783623768,-0.1461226233710745,-0.2678304391613513,22.1875,13.0,-12.625
182.0,0.06103515625,-0.1220703125,0.1220703125,-0.9485152745139928,-0.1457564012573625,-0.2624591814935758,21.1875,14.0625,-12.625
182.5,-0.1220703125,0.18310546875,0.06103515625,-0.9481490524002808,-0.1447798089541306,-0.2639240699484237,21.9375,12.1875,-15.0625
183.0,0.18310546875,0.0,0.06103515625,-0.9487594225898008,-0.1449018829920346,-0.2664876247444074,22.1875,12.1875,-10.0
183.5,0.06103515625,0.1220703125,-0.06103515625,-0.9476607562486647,-0.1460005493331705,-0.2614825891903439,21.1875,13.0,-12.125
184.0,0.1220703125,0.06103515625,-0.1220703125,-0.9488814966277048,-0.1451460310678426,-0.2657551805169835,23.625,12.1875,-15.5625
184.5,-0.18310546875,0.1220703125,0.18310546875,-0.9476607562486647,-0.1457564012573625,-0.2636799218726157,23.625,15.1875,-11.75
185.0,-0.06103515625,0.1220703125,0.3662109375,-0.9513229773857844,-0.1420941801202429,-0.2624591814935758,22.5625,12.5625,-11.25
185.5,-0.06103515625,0.244140625,0.0,-0.9486373485518969,-0.1472212897122104,-0.2614825891903439,22.25,13.375,-11.75
186.0,0.1220703125,-0.06103515625,0.1220703125,-0.9502243110446486,-0.1445356608783227,-0.2646565141758477,22.9375,14.8125,-8.75
186.5,-0.18310546875,-2.5634765625,1.46484375,-0.9521774956511124,-0.1375774407177953,-0.2424390392773217,21.5625,14.0625,-13.4375
187.0,-1.46484375,0.91552734375,-0.6103515625,-0.9531540879543444,-0.1345255897701956,-0.2502517777031769,22.1875,13.0,-13.375
187.5,2.99072265625,1.52587890625,-1.708984375,-0.9525437177648244,-0.15149388103885,-0.2647785882137516,22.5625,13.0,-14.6875
188.0,-0.244140625,-0.06103515625,0.1220703125,-0.9479049043244728,-0.1418500320444349,-0.2567217017120883,21.9375,14.0625,-11.25
188.5,0.42724609375,0.1220703125,0.0,-0.9505905331583604,-0.1386761070589312,-0.2552568132572405,21.5625,13.375,-10.0
189.0,-0.42724609375,0.30517578125,-0.06103515625,-0.9513229773857844,-0.1398968474379711,-0.2548905911435285,21.9375,12.5625,-13.375
189.5,0.1220703125,0.1220703125,0.1220703125,-0.9498580889309366,-0.1441694387646107,-0.2546464430677205,23.625,12.5625,-14.6875
190.0,-0.732421875,-0.06103515625,0.18310546875,-0.9485152745139928,-0.141239661854915,-0.2570879238258003,21.875,13.375,-12.625
190.5,-0.1220703125,-0.18310546875,0.06103515625,-0.9516891994994964,-0.1423383281960509,-0.2556230353709525,22.9375,13.6875,-15.9375
191.0,-0.18310546875,0.0,0.0,-0.9508346812341684,-0.1433149204992828,-0.2586748863185522,22.5625,11.8125,-13.8125
191.5,-2.01416015625,1.77001953125,-1.220703125,-0.9591357158116398,-0.1403851435895871,-0.2946867275002289,21.1875,10.6875,-15.0625
192.0,-0.244140625,-8.1787109375,-6.2255859375,-0.9708548234504228,-0.0952177495651112,-0.1217078157902768,22.5625,11.0625,-13.0
192.5,-8.9111328125,23.25439453125,-3.41796875,-0.9432660908841212,-0.0744651631214331,-0.293221839045381,21.1875,11.8125,-12.625
193.0,-4.82177734375,-0.48828125,1.46484375,-0.9502243110446486,-0.1095004119998779,-0.2879726554155095,20.5,10.6875,-17.6875
193.5,-5.06591796875,-12.63427734375,-2.01416015625,-0.9643848994415112,-0.130252998443556,-0.1651661732840968,21.1875,14.4375,-14.25
194.0,-4.150390625,-3.662109375,-1.220703125,-0.9851374858851892,-0.1241492965483565,-0.1123081148716696,22.5625,13.0,-14.6875
194.5,0.30517578125,9.27734375,-0.67138671875,-0.978667561876278,-0.1147495956297494,-0.1673635059663686,20.125,11.8125,-14.6875
195.0,1.220703125,2.685546875,-3.47900390625,-0.9831843012787256,-0.1210974456007568,-0.1784722434156316,21.9375,11.0625,-14.25
195.5,-2.50244140625,0.3662109375,0.06103515625,-0.9602343821527756,-0.1284218878749962,-0.216925565355388,22.5625,9.1875,-15.9375
196.0,2.99072265625,-4.21142578125,2.0751953125,-0.9687795648060548,-0.118778038880581,-0.1856746116519669,21.875,12.1875,-14.6875
196.5,4.150390625,5.37109375,-4.08935546875,-0.9742728965117344,-0.0775170140690328,-0.2075258644367809,23.25,13.0,-16.8125
197.0,-5.18798828125,-0.79345703125,-3.47900390625,-0.955839716788232,-0.1401409955137791,-0.2431714835047456,22.1875,14.4375,-8.75
197.5,0.9765625,0.67138671875,0.1220703125,-0.9651173436689352,-0.1235389263588366,-0.2298654133732108,22.25,11.8125,-12.125
198.0,0.1220703125,-2.38037109375,0.0,-0.9636524552140874,-0.1104770043031098,-0.2487868892483291,22.5625,11.0625,-13.8125
198.5,3.84521484375,0.54931640625,1.52587890625,-0.9703665272988068,-0.1014435254982146,-0.2294991912594988,22.5625,13.0,-13.375
199.0,-0.42724609375,-0.244140625,-0.244140625,-0.9625537888729514,-0.1176793725394451,-0.2138737144077883,23.625,12.1875,-10.4375
199.5,5.67626953125,11.8408203125,3.2958984375,-0.9640186773277992,-0.1597949156163213,-0.2155827509384441,18.375,9.9375,-18.5
200.0,6.77490234375,-15.5029296875,-0.48828125,-0.9543748283333842,-0.1101107821893978,-0.2650227362895596,19.8125,13.0,-18.5
200.5,-8.9111328125,-12.451171875,-10.68115234375,-0.999298074282052,-0.1070589312417981,-0.1013214514603106,22.9375,13.375,-10.875
201.0,-0.54931640625,5.43212890625,0.244140625,-0.9971007415997802,-0.1176793725394451,-0.0576189458906827,23.25,13.6875,-10.0
201.5,-11.29150390625,13.36669921875,4.82177734375,-0.9527878658406324,-0.0614032410657063,-0.3187353129673146,22.5625,12.5625,-11.25
202.0,3.84521484375,7.8125,-0.6103515625,-0.9289834284493546,-0.0947294534134952,-0.3331400494399854,22.5625,12.5625,-11.75
202.5,-0.18310546875,-1.708984375,-0.8544921875,-0.9449751274147772,-0.1009552293465987,-0.3391216772972808,22.9375,12.5625,-11.75
203.0,-0.18310546875,-10.1318359375,6.2255859375,-0.9475386822107608,-0.0904568620868556,-0.2926114688558611,21.1875,12.1875,-13.8125
203.5,-12.6953125,-27.52685546875,-6.77490234375,-0.9803765984069338,-0.1477095858638264,-0.2569658497878964,22.5625,13.6875,-12.625
204.0,-6.16455078125,1.3427734375,-0.18310546875,-0.978545487838374,-0.0793481246375926,-0.2476882229071932,22.1875,13.6875,-13.4375
204.5,0.79345703125,0.67138671875,-0.42724609375,-0.9671926023133032,-0.1143833735160374,-0.2222968230231635,21.9375,14.8125,-15.0625
205.0,0.06103515625,2.685546875,-1.15966796875,-0.9609668263801996,-0.1246375926999725,-0.228400524918363,22.5625,13.375,-17.1875
205.5,1.03759765625,0.732421875,-1.28173828125,-0.9581591235084078,-0.1318399609363078,-0.228278450880459,21.5625,13.6875,-11.25
206.0,16.41845703125,6.89697265625,-1.64794921875,-0.9514450514236884,-0.1612598040711691,-0.2326731162450026,21.9375,13.375,-10.875
206.5,0.3662109375,-0.9765625,1.15966796875,-0.9502243110446486,-0.1756645405438398,-0.2553788872951445,22.1875,11.8125,-11.75
207.0,-2.74658203125,-3.84521484375,3.11279296875,-0.9837946714682456,-0.1243934446241645,-0.17322305978576,19.8125,13.375,-10.875
207.5,-10.986328125,2.01416015625,-1.46484375,-0.954496902371288,-0.0896023438215277,-0.2840662862025818,21.5625,15.5625,-13.0
208.0,-10.7421875,-2.9296875,-2.44140625,-0.9717093417157506,-0.096926786095767,-0.2187566759239478,22.1875,13.0,-10.875
208.5,1.64794921875,2.25830078125,0.732421875,-0.9662160100100712,-0.0937528611102633,-0.2406079287087618,21.9375,14.0625,-10.875
209.0,1.8310546875,0.06103515625,0.79345703125,-0.95730460524308,-0.0952177495651112,-0.249519333475753,21.9375,13.6875,-13.0
209.5,1.15966796875,-0.9765625,-1.89208984375,-0.956816309091464,-0.107913449507126,-0.2502517777031769,23.25,11.8125,-10.875
210.0,2.62451171875,0.91552734375,0.9765625,-0.9620654927213356,-0.0915555284279915,-0.227668080690939,22.5625,11.8125,-10.0
210.5,3.60107421875,-0.244140625,3.96728515625,-0.9687795648060548,-0.0823999755851924,-0.2318185979796746,22.5625,13.375,-13.0
211.0,0.8544921875,-1.15966796875,0.9765625,-0.9686574907681508,-0.0827661976989043,-0.227546006653035,21.1875,13.6875,-14.6875
211.5,-2.685546875,-0.3662109375,0.8544921875,-0.9602343821527756,-0.1037629322183904,-0.2254707480086672,20.875,13.0,-14.25
212.0,0.54931640625,0.79345703125,-0.06103515625,-0.9689016388439587,-0.0949736014893032,-0.2255928220465712,22.5625,11.8125,-14.25
212.5,0.91552734375,-0.3662109375,0.06103515625,-0.9653614917447432,-0.0828882717368083,-0.2308420056764427,21.9375,13.0,-11.25
213.0,-1.708984375,-0.18310546875,0.1220703125,-0.9692678609576708,-0.0716574602496414,-0.2251045258949552,20.875,13.6875,-13.0
213.5,-0.91552734375,-0.6103515625,-1.03759765625,-0.9669484542374952,-0.0695822016052735,-0.2357249671926023,23.25,11.4375,-12.125
214.0,0.06103515625,-0.79345703125,0.1220703125,-0.9614551225318156,-0.0556657612842188,-0.2436597796563616,22.5625,11.4375,-14.6875
214.5,0.67138671875,-0.06103515625,0.54931640625,-0.9685354167302468,-0.075685903500473,-0.2262031922360912,22.9375,13.375,-15.5625
215.0,0.67138671875,0.9765625,-0.732421875,-0.9728080080568864,-0.0631122775963621,-0.228156376842555,22.9375,11.8125,-13.0
215.5,0.732421875,0.0,1.52587890625,-0.967558824427015,-0.0677510910367137,-0.2458571123386334,21.9375,13.375,-13.8125
216.0,-4.21142578125,-0.9765625,-0.79345703125,-0.9669484542374952,-0.0894802697836237,-0.2222968230231635,22.25,13.0,-13.4375
216.5,-0.54931640625,2.5634765625,1.708984375,-0.9751274147770624,-0.0781273842585528,-0.2294991912594988,22.1875,14.4375,-11.25
217.0,0.54931640625,-0.67138671875,-2.197265625,-0.9637745292519914,-0.0577410199285866,-0.2360911893063143,22.9375,11.0625,-13.8125
217.5,0.1220703125,0.54931640625,-0.732421875,-0.966460158085879,-0.0849635303811761,-0.2138737144077883,23.625,11.4375,-11.75
218.0,1.15966796875,0.244140625,0.0,-0.9619434186834316,-0.0699484237189855,-0.2432935575426496,22.9375,13.375,-10.875
218.5,-1.5869140625,0.6103515625,0.67138671875,-0.9698782311471909,-0.0737327188940092,-0.2208319345683156,23.25,11.8125,-11.25
219.0,2.25830078125,0.48828125,-2.3193359375,-0.968169194616535,-0.0764183477278969,-0.2303537095248268,21.9375,13.375,-13.4375
219.5,-0.48828125,-0.06103515625,0.9765625,-0.9703665272988068,-0.0766624958037049,-0.2257148960844752,22.1875,13.375,-15.9375
220.0,0.79345703125,2.44140625,1.5869140625,-0.9608447523422956,-0.0896023438215277,-0.2220526749473555,22.1875,13.375,-12.625
220.5,-1.77001953125,-1.77001953125,-1.708984375,-0.9638966032898952,-0.08630634479812,-0.2215643787957396,19.8125,14.0625,-8.75
221.0,-2.74658203125,0.732421875,0.30517578125,-0.9632862331003754,-0.0933866389965514,-0.2309640797143467,20.875,14.4375,-14.6875
221.5,-4.638671875,-0.8544921875,0.9765625,-0.9710989715262308,-0.0958281197546311,-0.2110660115359965,24.3125,14.0625,-7.9375
222.0,11.23046875,-1.0986328125,-1.28173828125,-0.9879451887569812,-0.0957060457167272,-0.2567217017120883,20.875,13.6875,-13.4375
222.5,-2.99072265625,-1.77001953125,4.57763671875,-0.978911709952086,-0.184820093386639,-0.1564989165929136,22.9375,13.375,-16.4375
223.0,1.40380859375,-13.36669921875,-2.38037109375,-0.967558824427015,-0.1328165532395397,-0.2221747489852595,21.1875,15.9375,-13.0
223.5,-0.244140625,6.77490234375,2.5634765625,-0.9332560197759942,-0.1199987792596209,-0.2514725180822169,23.25,14.4375,-11.75
224.0,-2.99072265625,0.91552734375,0.91552734375,-0.9624317148350474,-0.1042512283700064,-0.2110660115359965,21.9375,14.4375,-12.125
224.5,-0.3662109375,-0.54931640625,-0.6103515625,-0.9658497878963592,-0.0899685659352397,-0.2432935575426496,21.5625,13.375,-14.25
225.0,-0.30517578125,0.0,-0.1220703125,-0.957060457167272,-0.108279671620838,-0.2374340037232581,20.875,14.4375,-14.25
225.5,-2.8076171875,-1.46484375,0.79345703125,-0.9670705282753992,-0.0811792352061525,-0.2230292672505874,22.25,14.8125,-11.75
226.0,1.40380859375,2.99072265625,-0.48828125,-0.9625537888729514,-0.1135288552507095,-0.2192449720755638,21.5625,12.5625,-10.4375
226.5,-1.953125,2.44140625,0.42724609375,-0.9647511215552232,-0.108767967772454,-0.2375560777611621,22.1875,14.8125,-14.6875
227.0,1.28173828125,1.3427734375,0.06103515625,-0.9588915677358316,-0.0927762688070314,-0.2435377056184575,21.5625,14.4375,-14.25
227.5,-2.3193359375,-0.42724609375,-1.220703125,-0.9689016388439587,-0.086794640949736,-0.2200994903408917,22.25,15.9375,-13.0
228.0,-2.01416015625,0.67138671875,0.42724609375,-0.9748832667012544,-0.1021759697256386,-0.2185125278481399,20.875,17.875,-11.75
228.5,-0.732421875,0.732421875,0.244140625,-0.957792901394696,-0.1329386272774437,-0.2259590441602832,22.1875,15.1875,-12.625
229.0,-8.6669921875,2.3193359375,-1.953125,-0.9598681600390636,-0.0904568620868556,-0.2440260017700735,22.1875,16.6875,-13.8125
229.5,6.4697265625,0.9765625,1.5869140625,-0.9471724600970488,-0.1497848445081942,-0.2325510422070986,21.5625,15.5625,-12.125
230.0,5.859375,-1.46484375,5.43212890625,-0.9730521561326944,-0.1218298898281808,-0.1888485366374706,23.25,15.5625,-15.5625
230.5,0.8544921875,-0.8544921875,0.9765625,-0.9614551225318156,-0.1273232215338602,-0.2204657124546037,21.5625,13.375,-15.0625
231.0,-1.15966796875,2.13623046875,-0.732421875,-0.9729300820947904,-0.1029084139530625,-0.2044740134891811,21.1875,16.3125,-13.8125
231.5,-0.1220703125,0.244140625,0.06103515625,-0.966460158085879,-0.1235389263588366,-0.216559343241676,21.1875,15.9375,-14.25
232.0,0.1220703125,0.30517578125,-0.06103515625,-0.9685354167302468,-0.1142612994781334,-0.2163151951658681,21.1875,17.125,-11.25
232.5,-0.3662109375,0.48828125,-0.1220703125,-0.9608447523422956,-0.1223181859797967,-0.2215643787957396,20.5,15.5625,-10.4375
233.0,0.42724609375,0.67138671875,-0.06103515625,-0.9625537888729514,-0.1218298898281808,-0.2237617114780114,21.1875,17.875,-14.6875
233.5,0.67138671875,0.54931640625,-0.30517578125,-0.9626758629108554,-0.1264687032685323,-0.2307199316385387,20.875,16.3125,-13.0
234.0,0.0,-0.1220703125,0.0,-0.9608447523422956,-0.1270790734580523,-0.228034302804651,20.5,16.3125,-14.6875
234.5,0.18310546875,0.0,0.42724609375,-0.9601123081148716,-0.1280556657612842,-0.227423932615131,20.875,15.9375,-11.25
235.0,-0.06103515625,0.244140625,-0.9765625,-0.9638966032898952,-0.119022186956389,-0.2347483748893704,20.875,14.4375,-16.8125
235.5,1.220703125,-0.1220703125,0.3662109375,-0.9586474196600238,-0.1361125522629474,-0.2304757835627308,19.8125,15.5625,-16.8125
236.0,14.58740234375,-12.26806640625,2.01416015625,-0.9658497878963592,-0.1156041138950773,-0.1745658742027039,21.5625,15.1875,-11.75
236.5,7.99560546875,3.90625,-1.0986328125,-0.9719534897915586,-0.1402630695516831,-0.1507614368114261,22.9375,13.0,-6.1875
237.0,0.18310546875,39.61181640625,4.8828125,-0.9642628254036072,-0.0915555284279915,-0.282357249671926,23.25,12.5625,-8.3125
237.5,1.89208984375,0.79345703125,1.15966796875,-0.9311807611316264,-0.0908230842005676,-0.3175145725882748,22.9375,13.0,-7.9375
238.0,-30.94482421875,7.568359375,-10.3759765625,-0.9474166081728568,-0.1325724051637318,-0.249519333475753,21.9375,13.6875,-10.875
238.5,7.080078125,-4.0283203125,4.2724609375,-0.9393597216711936,-0.1137730033265175,-0.2890713217566454,20.5,15.5625,-17.1875
239.0,6.28662109375,3.90625,9.033203125,-0.9225135044404432,-0.0482192449720755,-0.2338938566240425,21.1875,14.8125,-11.75
239.5,0.8544921875,-19.10400390625,-4.0283203125,-0.9923398541215248,-0.097781304361095,-0.1374553666798913,23.625,17.125,-7.9375
240.0,-0.1220703125,-2.86865234375,0.30517578125,-0.9859920041505172,-0.1176793725394451,-0.1131626331369975,23.625,14.4375,-8.75
240.5,-8.7890625,32.470703125,-2.3193359375,-0.9745170445875424,-0.1286660359508041,-0.2226630451368755,21.9375,12.1875,-15.5625
241.0,-9.8876953125,-6.04248046875,4.2724609375,-0.9480269783623768,-0.1051057466353343,-0.3079927976317637,22.9375,13.6875,-12.125
241.5,10.92529296875,1.64794921875,8.4228515625,-0.9807428205206458,-0.1340372936185796,-0.2098452711569567,21.9375,15.1875,-12.125
242.0,-16.11328125,5.92041015625,-1.46484375,-0.9310586870937224,-0.1430707724234748,-0.2738120670186468,20.875,15.1875,-16.4375
242.5,-0.67138671875,-0.91552734375,7.01904296875,-0.9720755638294626,-0.1444135868404187,-0.2122867519150364,22.9375,13.375,-9.1875
243.0,4.82177734375,1.46484375,-3.173828125,-0.9707327494125186,-0.1418500320444349,-0.2194891201513718,20.125,14.4375,-7.9375
243.5,-10.7421875,4.69970703125,1.40380859375,-0.9073763237403484,-0.0874050111392559,-0.3391216772972808,22.1875,15.5625,-10.0
244.0,-3.662109375,-3.662109375,-0.244140625,-0.9385052034058656,-0.1223181859797967,-0.2963957640308847,21.9375,14.0625,-7.9375
244.5,-1.0986328125,0.48828125,0.244140625,-0.935697500534074,-0.1178014465773491,-0.3018890957365642,22.9375,13.6875,-10.0
245.0,-0.732421875,0.42724609375,0.1220703125,-0.9408246101260416,-0.1162144840845973,-0.2941984313486129,21.9375,14.8125,-9.625
245.5,0.42724609375,0.30517578125,0.42724609375,-0.9420453505050812,-0.1140171514023255,-0.2989593188268685,21.9375,15.5625,-10.875
246.0,0.54931640625,0.67138671875,0.48828125,-0.9415570543534654,-0.1173131504257332,-0.3087252418591876,22.25,15.5625,-7.9375
246.5,0.1220703125,0.0,-0.1220703125,-0.9400921658986175,-0.1171910763878292,-0.3056733909115878,21.1875,14.8125,-9.625
247.0,0.42724609375,-0.06103515625,0.06103515625,-0.9435102389599292,-0.1135288552507095,-0.304330576494644,23.25,13.6875,-8.3125
247.5,-0.244140625,-0.48828125,-0.244140625,-0.935209204382458,-0.1170690023499252,-0.3066499832148198,22.25,14.0625,-13.4375
248.0,-0.18310546875,0.1220703125,0.06103515625,-0.9398480178228096,-0.1163365581225013,-0.3020111697744682,22.25,16.3125,-10.875
248.5,-0.244140625,0.48828125,-0.18310546875,-0.9403363139744256,-0.1171910763878292,-0.2979827265236366,23.9375,15.5625,-11.75
249.0,-0.1220703125,-0.1220703125,-0.1220703125,-0.9430219428083132,-0.1197546311838129,-0.2996917630542924,22.1875,15.1875,-11.75
249.5,0.0,-0.06103515625,0.244140625,-0.9419232764671772,-0.1146275215918454,-0.3024994659260842,22.9375,14.0625,-8.75
250.0,1.220703125,0.244140625,0.0,-0.9461958677938168,-0.1109653004547257,-0.3007904293954283,21.5625,15.9375,-7.9375
250.5,0.732421875,2.01416015625,-0.30517578125,-0.935819574571978,-0.119388409070101,-0.3109225745414594,22.25,16.3125,-8.3125
251.0,-0.18310546875,0.3662109375,-0.18310546875,-0.9322794274727624,-0.1241492965483565,-0.325083162938322,22.1875,15.5625,-8.3125
251.5,0.3662109375,0.06103515625,-0.30517578125,-0.9253212073122348,-0.1383098849452192,-0.3306985686819055,22.5625,14.4375,-9.625
252.0,-0.244140625,-0.1220703125,0.1220703125,-0.936429944761498,-0.1307412945951719,-0.314462721640675,21.1875,14.4375,-12.125
252.5,0.06103515625,0.0,0.244140625,-0.935087130344554,-0.1286660359508041,-0.3161717581713309,22.1875,16.3125,-10.0
253.0,0.244140625,0.18310546875,0.244140625,-0.9388714255195776,-0.1264687032685323,-0.3178807947019867,22.1875,14.0625,-10.0
253.5,-0.06103515625,-0.18310546875,0.6103515625,-0.9309366130558184,-0.1346476638080996,-0.3206884975737785,23.625,16.3125,-5.8125
254.0,2.38037109375,0.8544921875,0.67138671875,-0.9415570543534654,-0.119022186956389,-0.3003021332438124,21.9375,14.4375,-8.3125
254.5,0.06103515625,-0.54931640625,0.48828125,-0.9320352793969544,-0.1358684041871395,-0.314951017792291,21.9375,15.9375,-10.0
255.0,-0.3662109375,0.244140625,0.0,-0.9321573534348584,-0.1275673696096682,-0.314584795678579,20.5,16.6875,-7.4375
255.5,-0.244140625,0.30517578125,-0.18310546875,-0.9325235755485702,-0.1319620349742118,-0.3177587206640828,20.875,15.1875,-10.0
256.0,0.3662109375,0.06103515625,0.18310546875,-0.9331339457380902,-0.1325724051637318,-0.3226416821802423,21.9375,14.8125,-7.4375
256.5,0.30517578125,0.06103515625,-0.244140625,-0.93435468611713,-0.1245155186620685,-0.3171483504745628,20.5,14.4375,-11.25
257.0,0.6103515625,0.0,0.18310546875,-0.9319132053590504,-0.1318399609363078,-0.3241065706350902,20.5,15.5625,-11.25
257.5,9.765625,0.732421875,2.44140625,-0.9162877285073396,-0.1787163914914395,-0.3120212408825953,22.5625,15.5625,-11.75
258.0,-2.38037109375,-0.42724609375,-0.48828125,-0.9441206091494492,-0.1419721060823389,-0.2916348765526291,20.125,17.5,-7.0625
258.5,0.91552734375,-0.732421875,2.0751953125,-0.9513229773857844,-0.1264687032685323,-0.2844325083162938,20.875,16.6875,-8.75
259.0,-3.662109375,2.197265625,0.0,-0.9407025360881376,-0.141483809930723,-0.2949308755760368,20.5,15.5625,-9.625
259.5,10.19287109375,2.99072265625,4.638671875,-0.9319132053590504,-0.1350138859218115,-0.3022553178502762,22.5625,15.5625,-12.625
260.0,-0.30517578125,0.18310546875,-0.9765625,-0.9411908322397534,-0.1387981810968352,-0.2910245063631092,20.125,14.4375,-6.1875
260.5,-2.62451171875,2.0751953125,-1.40380859375,-0.9399700918607136,-0.1425824762718588,-0.3017670216986602,22.9375,15.5625,-12.125
261.0,2.0751953125,-1.46484375,1.28173828125,-0.9411908322397534,-0.1387981810968352,-0.293221839045381,22.1875,16.3125,-7.9375
261.5,-0.30517578125,-0.06103515625,0.30517578125,-0.9403363139744256,-0.1313516647846919,-0.2926114688558611,21.9375,17.5,-9.1875
262.0,-0.1220703125,-0.732421875,0.244140625,-0.9385052034058656,-0.1417279580065309,-0.2970061342204046,22.5625,17.125,-9.5625
262.5,-0.1220703125,0.48828125,0.06103515625,-0.9391155735953856,-0.1336710715048677,-0.2983489486373485,21.5625,15.5625,-10.0
263.0,0.0,0.30517578125,-0.18310546875,-0.9377727591784416,-0.1387981810968352,-0.3009125034333323,21.5625,16.6875,-10.5
263.5,-0.18310546875,0.1220703125,-0.18310546875,-0.9392376476332897,-0.1430707724234748,-0.2995696890163884,22.25,15.1875,-12.125
264.0,0.1220703125,-0.1220703125,0.18310546875,-0.93557542649617,-0.1398968474379711,-0.3026215399639881,22.5625,17.125,-8.75
264.5,-0.18310546875,-0.18310546875,-0.244140625,-0.9378948332163456,-0.1425824762718588,-0.2962736899929807,21.5625,14.8125,-10.875
265.0,0.0,-0.18310546875,0.30517578125,-0.9394817957090976,-0.140995513779107,-0.2987151707510605,21.9375,16.3125,-10.875
265.5,0.1220703125,-0.3662109375,0.0,-0.9396038697470016,-0.1385540330210272,-0.2984710226752525,22.9375,15.1875,-7.9375
266.0,-0.42724609375,0.244140625,0.18310546875,-0.936063722647786,-0.1446577349162267,-0.3005462813196203,21.9375,15.1875,-15.5625
266.5,-1.28173828125,-7.9345703125,1.8310546875,-0.9313028351695304,-0.1203650013733329,-0.3081148716696676,21.9375,14.8125,-9.1875
267.0,-2.3193359375,-1.0986328125,-1.28173828125,-0.9723197119052706,-0.1209753715628528,-0.2017883846552934,22.9375,13.375,-10.0
267.5,-9.58251953125,7.99560546875,0.06103515625,-0.9588915677358316,-0.1374553666798913,-0.1997131260109256,22.5625,15.1875,-8.3125
268.0,-7.01904296875,-6.40869140625,-0.30517578125,-0.9503463850825524,-0.1164586321604052,-0.3099459822382275,22.1875,13.6875,-13.4375
268.5,-2.74658203125,1.28173828125,-8.4228515625,-0.9254432813501388,-0.1449018829920346,-0.3785515915402692,22.25,13.6875,-12.125
269.0,-0.244140625,-5.06591796875,1.89208984375,-0.9502243110446486,-0.1198767052217169,-0.2628254036072878,23.625,9.1875,-11.25
269.5,26.42822265625,28.86962890625,-3.11279296875,-0.9049348429822688,-0.1796929837946714,-0.1776177251503036,22.625,-4.0,-10.875
270.0,18.49365234375,-2.74658203125,7.8125,-0.9277626880703148,-0.0598162785729545,-0.3556016724143193,23.25,-6.3125,-5.8125
270.5,60.05859375,0.244140625,24.71923828125,-0.9718314157536546,-0.0246589556566057,-0.2667317728202155,22.5625,-4.8125,-7.0625
271.0,24.0478515625,4.82177734375,6.77490234375,-0.9283730582598346,-0.1009552293465987,-0.347422711874752,22.25,3.4375,-14.6875
271.5,-9.1552734375,-0.18310546875,-0.18310546875,-0.912991729483932,-0.0732444227423932,-0.3900265511032441,21.5625,2.6875,-17.6875
272.0,-24.84130859375,-22.64404296875,-14.0380859375,-0.9531540879543444,-0.0196539201025421,-0.2979827265236366,22.1875,1.1875,-16.8125
272.5,-4.21142578125,-4.45556640625,3.7841796875,-0.9870906704916532,-0.0832544938505203,-0.1116977446821497,23.625,1.5625,-12.125
273.0,5.18798828125,1.953125,-0.79345703125,-0.9724417859431744,-0.1207312234870448,-0.1339152195806756,23.25,-2.125,-10.4375
273.5,-29.1748046875,23.681640625,0.42724609375,-0.9715872676778466,-0.1232947782830286,-0.1917783135471663,25.0,-1.0625,-8.75
274.0,14.6484375,1.3427734375,0.3662109375,-0.9808648945585496,0.0092776268807031,-0.2564775536362804,23.9375,0.4375,-14.6875
274.5,0.79345703125,-2.62451171875,2.13623046875,-0.945463423566393,0.0032959990234076,-0.3171483504745628,23.25,0.0625,-13.8125
275.0,-3.23486328125,-4.94384765625,-9.521484375,-0.9376506851405376,-0.0062257759331034,-0.3253273110141301,22.5625,3.4375,-12.625
275.5,8.056640625,7.38525390625,-0.54931640625,-0.9653614917447432,-0.118778038880581,-0.3265480513931699,23.25,0.8125,-15.0625
276.0,-1.52587890625,-0.42724609375,-5.18798828125,-0.9579149754325998,-0.1245155186620685,-0.2592852565080721,22.9375,1.1875,-14.3125
276.5,-6.591796875,-0.732421875,-1.89208984375,-0.9625537888729514,-0.1424604022339549,-0.205938901944029,25.0,2.6875,-13.4375
277.0,4.5166015625,-2.50244140625,1.03759765625,-0.976958525345622,-0.0765404217658009,-0.1873836481826227,25.0,1.5625,-12.625
277.5,20.6298828125,-2.5634765625,-10.80322265625,-0.9275185399945066,-0.1646778771324808,-0.2735679189428388,22.5625,-0.3125,-10.875
278.0,0.9765625,0.1220703125,-0.3662109375,-0.9515671254615924,-0.1330607013153477,-0.2415845210119937,21.1875,0.4375,-17.6875
278.5,2.685546875,0.6103515625,4.57763671875,-0.9671926023133032,-0.0806909390545365,-0.2338938566240425,20.875,-0.3125,-20.25
279.0,-6.40869140625,-22.705078125,8.60595703125,-0.9469283120212408,-0.0855739005706961,-0.2542802209540086,21.9375,0.8125,-17.6875
279.5,11.1083984375,-5.7373046875,-9.3994140625,-0.9946592608417004,-0.1130405590990936,-0.0827661976989043,23.625,4.1875,-14.25
280.0,0.67138671875,-0.54931640625,-0.42724609375,-0.9949034089175084,-0.1020538956877346,-0.0253913998840296,22.5625,1.1875,-12.125
280.5,-32.470703125,23.0712890625,4.33349609375,-0.9536423841059604,-0.1134067812128055,-0.4002807702871792,20.5,0.0625,-20.625
281.0,-5.859375,9.94873046875,2.99072265625,-0.957792901394696,-0.0463881344035157,-0.2838221381267738,20.5,0.4375,-18.0625
281.5,9.58251953125,-22.52197265625,2.99072265625,-0.9969786675618764,0.0004882961516159,-0.1461226233710745,24.3125,2.6875,-14.6875
282.0,-1.64794921875,7.6904296875,1.64794921875,-0.9863582262642292,-0.0733664967802972,-0.0396740623187963,18.75,11.8125,-14.25
282.5,-7.6904296875,15.44189453125,-3.173828125,-0.9861140781884212,-0.0271004364146855,-0.195196386608478,20.5,15.9375,-13.8125
283.0,-27.587890625,-17.27294921875,-13.24462890625,-0.9974669637134922,-0.0667744987334818,-0.1071810052797021,20.125,15.5625,-15.0625
283.5,-18.4326171875,-2.25830078125,-11.3525390625,-0.9581591235084078,-0.1859187597277748,-0.1701712088381603,20.875,11.4375,-15.5625
284.0,5.7373046875,0.732421875,2.01416015625,-0.9697561571092868,-0.1978820154423658,-0.1821344645527512,23.625,13.0,-13.8125
284.5,6.04248046875,1.220703125,9.521484375,-0.934720908230842,-0.2302316354869228,-0.2076479384746849,22.1875,11.8125,-15.5625
285.0,-15.7470703125,-2.74658203125,0.48828125,-0.9595019379253518,-0.0847193823053682,-0.140751365703299,22.5625,12.1875,-13.0
285.5,11.23046875,3.35693359375,15.380859375,-0.9430219428083132,-0.1245155186620685,-0.3031098361156041,21.5625,13.6875,-13.8125
286.0,11.41357421875,15.7470703125,1.8310546875,-0.9809869685964536,-0.0313730277413251,-0.2315744499038667,22.9375,11.8125,-12.125
286.5,1.708984375,2.01416015625,1.15966796875,-0.9599902340769676,-0.1025421918393505,-0.1981261635181737,21.5625,10.6875,-12.125
287.0,-3.96728515625,-7.568359375,17.9443359375,-1.0289620654927214,-0.0218512527848139,-0.2813806573686941,22.1875,11.4375,-13.8125
287.5,-5.43212890625,-21.42333984375,-3.5400390625,-0.9867244483779412,-0.1131626331369975,-0.1672414319284646,20.875,12.1875,-12.125
288.0,-15.31982421875,1.220703125,-1.64794921875,-1.0034485915707876,-0.0666524246955778,-0.2144840845973082,22.625,12.5625,-13.8125
288.5,1.5869140625,1.46484375,1.52587890625,-0.9710989715262308,-0.0997344889675588,-0.2037415692617572,22.5625,11.8125,-13.4375
289.0,0.1220703125,-0.18310546875,0.91552734375,-0.9653614917447432,-0.1066927091280861,-0.2136295663319803,22.25,13.6875,-16.4375
289.5,0.30517578125,-0.06103515625,-0.18310546875,-0.966704306161687,-0.1127964110232856,-0.2218085268715476,24.6875,12.5625,-10.875
290.0,0.1220703125,0.30517578125,-0.18310546875,-0.9609668263801996,-0.1093783379619739,-0.2236396374401074,22.25,13.6875,-10.875
290.5,-0.79345703125,-0.1220703125,-0.48828125,-0.9638966032898952,-0.1091341898861659,-0.2220526749473555,24.3125,11.4375,-13.8125
291.0,0.79345703125,0.06103515625,0.42724609375,-0.9651173436689352,-0.1088900418103579,-0.2249824518570513,22.5625,13.375,-15.9375
291.5,1.220703125,-3.11279296875,-2.13623046875,-0.9928281502731406,-0.1239051484725486,-0.1662648396252327,20.125,11.8125,-15.9375
292.0,-4.7607421875,-6.4697265625,8.60595703125,-0.9685354167302468,-0.0572527237769707,-0.282601397747734,21.1875,13.0,-14.25
292.5,9.58251953125,-27.40478515625,-2.197265625,-1.0145573290200507,-0.0672627948850978,-0.0467543565172277,22.5625,11.0625,-13.8125
293.0,-8.23974609375,1.5869140625,-0.06103515625,-0.979400006103702,-0.1344035157322916,-0.0664082766197698,22.25,11.4375,-14.25
293.5,12.3291015625,-1.15966796875,-4.57763671875,-0.9668263801995912,-0.097659230323191,-0.1887264625995666,20.5,12.1875,-15.0625
294.0,-2.99072265625,3.60107421875,-2.62451171875,-0.9621875667592394,-0.1480758079775384,-0.2052064577166051,22.5625,11.8125,-14.6875
294.5,-9.21630859375,-3.35693359375,5.67626953125,-0.9670705282753992,-0.1169469283120212,-0.195196386608478,22.25,11.8125,-13.0
295.0,13.3056640625,2.01416015625,-2.62451171875,-0.9851374858851892,-0.1098666341135898,-0.1484420300912503,21.5625,12.1875,-13.4375
295.5,-1.03759765625,-0.3662109375,0.67138671875,-0.9656056398205513,-0.1351359599597155,-0.1914120914334544,22.625,12.1875,-14.3125
296.0,-0.42724609375,0.06103515625,0.0,-0.9659718619342632,-0.130008850367748,-0.2015442365794854,21.1875,12.5625,-11.75
296.5,2.13623046875,0.1220703125,-0.244140625,-0.9612109744560076,-0.1320841090121158,-0.2037415692617572,22.25,13.375,-14.6875
297.0,0.244140625,0.48828125,-0.30517578125,-0.967802972502823,-0.1207312234870448,-0.2072817163609729,22.25,13.375,-15.9375
297.5,-0.1220703125,-0.18310546875,-0.30517578125,-0.9686574907681508,-0.1184118167668691,-0.206549272133549,22.5625,12.5625,-14.6875
298.0,-0.1220703125,0.1220703125,0.0,-0.9636524552140874,-0.1289101840266121,-0.2111880855739005,22.1875,13.6875,-12.625
298.5,0.244140625,0.3662109375,0.244140625,-0.9720755638294626,-0.1129184850611896,-0.2080141605883968,21.9375,12.1875,-12.625
299.0,-2.197265625,0.3662109375,-1.220703125,-0.9608447523422956,-0.1318399609363078,-0.2157048249763481,21.1875,12.1875,-13.4375
299.5,0.8544921875,0.91552734375,0.67138671875,-0.9621875667592394,-0.1323282570879238,-0.2224188970610675,22.5625,12.1875,-13.0
300.0,-0.8544921875,-0.18310546875,-0.79345703125,-0.9636524552140874,-0.129886776329844,-0.2105777153843806,23.25,11.8125,-15.0625
300.5,-11.41357421875,-1.0986328125,1.0986328125,-0.9703665272988068,-0.0706808679464095,-0.2302316354869228,23.625,12.5625,-14.6875
301.0,-3.96728515625,-0.9765625,-2.13623046875,-0.9590136417737358,-0.1226844080935087,-0.2196111941892758,23.25,10.6875,-10.875
301.5,-1.89208984375,2.5634765625,2.685546875,-0.966582232123783,-0.1060823389385662,-0.2242500076296273,23.9375,13.0,-14.6875
302.0,-2.13623046875,-0.91552734375,0.48828125,-0.968169194616535,-0.1181676686910611,-0.2122867519150364,22.25,12.5625,-13.8125
302.5,-2.99072265625,0.244140625,-0.732421875,-0.9626758629108554,-0.1016876735740226,-0.2249824518570513,23.25,12.5625,-11.25
303.0,-0.3662109375,-1.28173828125,0.732421875,-0.9712210455641348,-0.0816675313577684,-0.2150944547868282,22.9375,11.4375,-10.875
303.5,-2.38037109375,-0.18310546875,-0.67138671875,-0.9695120090334788,-0.1252479628894924,-0.2138737144077883,21.9375,13.6875,-10.4375
304.0,0.54931640625,0.8544921875,0.54931640625,-0.9648731955931272,-0.1207312234870448,-0.2148503067110202,21.1875,11.4375,-13.8125
304.5,-5.55419921875,0.54931640625,-2.50244140625,-0.9762260811181982,-0.0933866389965514,-0.2077700125125889,21.9375,14.0625,-15.5625
305.0,2.44140625,-1.46484375,3.11279296875,-0.9728080080568864,-0.0992461928159428,-0.2121646778771324,22.5625,15.5625,-13.0
305.5,1.3427734375,0.30517578125,-1.52587890625,-0.9656056398205513,-0.1120639667958617,-0.2004455702383495,21.9375,14.4375,-12.625
306.0,1.220703125,0.3662109375,-0.732421875,-0.9629200109866634,-0.1143833735160374,-0.2100894192327646,22.9375,12.5625,-13.4375
306.5,-1.220703125,7.26318359375,0.18310546875,-0.9505905331583604,-0.1307412945951719,-0.2313303018280587,20.125,15.1875,-12.125
307.0,6.9580078125,1.28173828125,1.89208984375,-0.9626758629108554,-0.1226844080935087,-0.2437818536942655,22.25,15.5625,-13.8125
307.5,-5.55419921875,-2.9296875,-4.21142578125,-0.976836451307718,-0.0750755333109531,-0.2393871883297219,22.25,14.8125,-14.25
308.0,-1.220703125,-0.9765625,0.1220703125,-0.9623096407971434,-0.1127964110232856,-0.2297433393353068,20.875,13.6875,-11.25
308.5,0.91552734375,-0.244140625,0.54931640625,-0.957670827356792,-0.1320841090121158,-0.2357249671926023,20.875,15.5625,-13.0
309.0,-0.732421875,0.67138671875,0.06103515625,-0.957792901394696,-0.1309854426709799,-0.2470778527176732,21.1875,15.1875,-15.0625
309.5,-1.8310546875,-6.53076171875,-0.48828125,-0.9696340830713828,-0.1231727042451246,-0.1987365337076937,21.9375,14.8125,-13.4375
310.0,3.2958984375,1.708984375,-0.67138671875,-0.9535203100680564,-0.1263466292306283,-0.2567217017120883,22.25,13.375,-15.5625
310.5,0.9765625,-0.06103515625,0.54931640625,-0.9660939359721672,-0.1291543321024201,-0.206671346171453,22.625,13.6875,-12.125
311.0,5.859375,2.5634765625,1.28173828125,-0.9527878658406324,-0.1496627704702902,-0.2406079287087618,22.25,12.5625,-13.8125
311.5,-2.8076171875,1.220703125,-1.0986328125,-0.9518112735374004,-0.1232947782830286,-0.249641407513657,21.1875,13.375,-14.25
312.0,-0.67138671875,0.244140625,-0.1220703125,-0.9613330484939115,-0.1204870754112369,-0.2367015594958342,20.5,14.0625,-15.5625
312.5,1.953125,0.06103515625,0.91552734375,-0.9588915677358316,-0.1341593676564836,-0.2310861537522507,20.5,12.1875,-15.0625
313.0,-7.4462890625,-4.150390625,2.8076171875,-0.9595019379253518,-0.1203650013733329,-0.2547685171056245,21.5625,13.375,-14.25
313.5,1.3427734375,9.8876953125,-5.79833984375,-0.9448530533768732,-0.1217078157902768,-0.1788384655293435,19.8125,12.1875,-22.3125
314.0,-10.986328125,16.11328125,5.92041015625,-0.9425336466566973,-0.1573534348582415,-0.2915128025147251,23.9375,13.6875,-12.125
314.5,-5.37109375,-35.46142578125,2.86865234375,-0.979888302255318,-0.1503952146977141,-0.107669301431318,23.25,12.1875,-13.4375
315.0,9.765625,2.01416015625,-0.3662109375,-1.0061342204046757,-0.1241492965483565,-0.0002441480758079,22.9375,13.0,-13.0
315.5,-4.33349609375,6.40869140625,-10.25390625,-0.8850367748039186,-0.2833338419751579,-0.3641468550675985,22.1875,13.375,-9.1875
316.0,-1.46484375,-17.9443359375,3.23486328125,-0.9638966032898952,-0.1904354991302224,-0.1870174260689108,21.1875,13.375,-10.4375
316.5,4.7607421875,3.41796875,-3.60107421875,-0.935697500534074,-0.0456556901760918,-0.3706167790765099,19.0625,14.4375,-20.625
317.0,7.568359375,-4.08935546875,0.732421875,-0.9432660908841212,-0.0896023438215277,-0.2555009613330485,21.1875,14.8125,-15.5625
317.5,-4.2724609375,-21.97265625,-0.91552734375,-0.9580370494705038,-0.1308633686330759,-0.2208319345683156,22.5625,11.8125,-10.4375
318.0,0.48828125,0.79345703125,-2.197265625,-0.97903378398999,-0.1394085512863551,-0.1366008484145634,21.1875,13.375,-15.0625
318.5,21.97265625,53.1005859375,12.75634765625,-0.957182531205176,-0.0792260505996887,-0.2363353373821222,22.9375,14.0625,-7.0625
319.0,-2.25830078125,-3.5400390625,1.3427734375,-0.9553514206366162,-0.0743430890835291,-0.2659993285927915,23.9375,11.8125,-11.25
319.5,-6.34765625,2.62451171875,-2.25830078125,-0.9418012024292732,-0.0955839716788232,-0.2551347392193365,22.25,12.1875,-14.6875
320.0,-21.8505859375,-2.86865234375,9.46044921875,-0.956205938901944,-0.0792260505996887,-0.2336497085482345,20.5,11.4375,-17.25
320.5,2.685546875,-2.0751953125,2.62451171875,-0.9659718619342632,-0.0454115421002838,-0.2446363719595934,20.5,12.5625,-14.25
321.0,8.60595703125,-28.13720703125,-5.37109375,-0.9642628254036072,-0.1287881099887081,-0.1748100222785119,20.125,13.0,-17.6875
321.5,3.47900390625,7.568359375,1.89208984375,-0.9624317148350474,-0.1176793725394451,-0.1469771416364024,21.5625,11.0625,-13.4375
322.0,0.48828125,0.9765625,-2.3193359375,-0.9654835657826472,-0.1015655995361186,-0.1539353617969298,20.125,14.4375,-13.8125
322.5,9.8876953125,-1.220703125,9.3994140625,-0.977568895535142,-0.1445356608783227,-0.1213415936765648,19.8125,12.1875,-18.5
323.0,-0.79345703125,0.67138671875,3.5400390625,-0.9743949705496384,-0.0999786370433668,-0.216803491317484,20.125,12.1875,-15.5625
323.5,-2.0751953125,-8.11767578125,-1.40380859375,-0.9723197119052706,-0.0813013092440565,-0.2022766808069094,21.5625,13.0,-14.6875
324.0,-3.0517578125,-5.859375,-1.46484375,-0.989165929136021,-0.1101107821893978,-0.1136509292886135,22.5625,14.0625,-11.25
324.5,4.21142578125,2.197265625,2.13623046875,-0.9938047425763724,-0.1136509292886135,-0.1123081148716696,22.5625,12.1875,-15.0625
325.0,-5.615234375,16.845703125,4.57763671875,-0.9463179418317208,-0.1370891445661793,-0.2584307382427442,20.5,13.0,-10.4375
325.5,-0.18310546875,-6.04248046875,2.38037109375,-0.9584032715842158,-0.0600604266487624,-0.2619708853419599,22.625,11.4375,-11.75
326.0,3.35693359375,-4.5166015625,-1.52587890625,-0.966460158085879,-0.0739768669698172,-0.1912900173955504,21.5625,11.4375,-13.0
326.5,0.9765625,5.31005859375,-1.3427734375,-0.977324747459334,-0.097415082247383,-0.1497848445081942,21.9375,13.375,-15.0625
327.0,5.9814453125,8.544921875,-0.42724609375,-0.9492477187414168,-0.1029084139530625,-0.293221839045381,23.625,13.6875,-15.9375
327.5,0.91552734375,-0.67138671875,1.15966796875,-0.9518112735374004,-0.0858180486465041,-0.2722251045258949,23.9375,11.4375,-15.0625
328.0,-5.55419921875,-3.11279296875,-9.765625,-0.9718314157536546,-0.0910672322763756,-0.2022766808069094,22.9375,13.0,-13.4375
328.5,-2.01416015625,-2.38037109375,0.244140625,-0.9734183782464064,-0.1264687032685323,-0.2222968230231635,21.5625,12.1875,-10.4375
329.0,5.4931640625,3.35693359375,-1.8310546875,-0.9603564561906796,-0.1162144840845973,-0.2313303018280587,22.25,13.6875,-11.75
329.5,-0.30517578125,0.91552734375,-0.1220703125,-0.9485152745139928,-0.0983916745506149,-0.2799157689138462,21.9375,13.0,-12.625
330.0,2.38037109375,1.5869140625,-0.244140625,-0.9529099398785364,-0.1027863399151585,-0.2813806573686941,21.9375,14.4375,-13.4375
330.5,0.3662109375,0.9765625,-0.18310546875,-0.9518112735374004,-0.1171910763878292,-0.2882168034913175,20.875,14.0625,-15.9375
331.0,0.06103515625,0.54931640625,0.0,-0.9531540879543444,-0.0988799707022309,-0.271858882412183,21.5625,13.0,-15.0625
331.5,7.568359375,-5.55419921875,-1.3427734375,-0.9619434186834316,-0.1185338908047731,-0.2362132633442182,20.875,13.0,-13.8125
332.0,-0.9765625,-0.48828125,0.54931640625,-0.9670705282753992,-0.1185338908047731,-0.1892147587511826,22.5625,13.375,-13.8125
332.5,-0.30517578125,6.2255859375,-2.25830078125,-0.9588915677358316,-0.1291543321024201,-0.1861629078035828,22.1875,12.1875,-13.4375
333.0,-18.98193359375,-1.5869140625,-0.42724609375,-0.957426679280984,-0.1265907773064363,-0.2601397747734,22.9375,13.6875,-13.4375
333.5,-2.3193359375,-2.25830078125,2.86865234375,-0.9595019379253518,-0.0882595294045838,-0.2415845210119937,21.9375,13.6875,-13.0
334.0,4.57763671875,2.685546875,-0.244140625,-0.9626758629108554,-0.0942411572618793,-0.2362132633442182,22.9375,12.1875,-13.8125
334.5,0.06103515625,-0.42724609375,0.18310546875,-0.966704306161687,-0.0875270851771599,-0.2266914883877071,22.1875,12.1875,-12.125
335.0,-1.03759765625,0.06103515625,0.42724609375,-0.9652394177068392,-0.086794640949736,-0.2337717825861384,20.125,13.6875,-15.5625
335.5,2.3193359375,1.40380859375,-0.67138671875,-0.9623096407971434,-0.0880153813287759,-0.2381664479506821,19.0625,13.0,-15.0625
336.0,-2.25830078125,-0.06103515625,-0.79345703125,-0.9638966032898952,-0.0998565630054628,-0.2418286690878017,19.4375,11.8125,-19.75
336.5,2.0751953125,-8.72802734375,-0.244140625,-0.9712210455641348,-0.0964384899441511,-0.1908017212439344,21.5625,13.0,-13.8125
337.0,6.04248046875,-4.5166015625,-2.9296875,-1.0089419232764671,-0.0748313852351451,-0.0657979064302499,23.9375,12.5625,-14.25
337.5,2.86865234375,-1.3427734375,0.0,-0.9846491897335734,-0.0905789361247596,-0.0961943418683431,21.5625,14.0625,-13.0
338.0,-3.72314453125,25.69580078125,1.0986328125,-0.988677632984405,-0.0822779015472884,-0.1658986175115207,21.5625,11.4375,-15.9375
338.5,-1.77001953125,1.15966796875,0.42724609375,-0.9497360148930326,-0.1129184850611896,-0.2733237708670308,20.875,12.5625,-16.8125
339.0,-0.732421875,-5.7373046875,0.732421875,-0.9597460860011596,-0.0944853053376873,-0.2481765190588091,22.25,13.0,-13.0
339.5,-6.34765625,-10.3759765625,2.99072265625,-0.9707327494125186,-0.0922879726554155,-0.1545457319864497,21.9375,13.0,-13.8125
340.0,4.08935546875,8.9111328125,-2.0751953125,-0.978789635914182,-0.0941190832239753,-0.151982177190466,23.25,12.5625,-11.25
340.5,-0.42724609375,0.1220703125,-1.03759765625,-0.9718314157536546,-0.1159703360087893,-0.2125308999908444,21.9375,13.0,-13.8125
341.0,-0.244140625,-1.0986328125,0.3662109375,-0.9712210455641348,-0.1090121158482619,-0.2198553422650837,21.1875,13.0,-10.875
341.5,-1.8310546875,1.708984375,-0.54931640625,-0.956450086977752,-0.1073030793176061,-0.2506179998168889,21.9375,13.0,-10.4375
342.0,0.42724609375,0.30517578125,0.06103515625,-0.9505905331583604,-0.1167027802362132,-0.2635578478347117,21.1875,12.1875,-16.8125
342.5,0.42724609375,-1.03759765625,-0.8544921875,-0.95608386486404,-0.119266335032197,-0.2468337046418653,22.25,12.5625,-15.5625
343.0,-1.52587890625,-4.150390625,1.03759765625,-0.9632862331003754,-0.1021759697256386,-0.2537919248023926,21.9375,13.6875,-13.8125
343.5,-0.79345703125,-2.38037109375,-0.30517578125,-0.9748832667012544,-0.1073030793176061,-0.1820123905148472,21.5625,13.375,-15.0625
344.0,-0.18310546875,3.2958984375,0.6103515625,-0.9757377849665824,-0.1146275215918454,-0.1778618732261116,21.9375,11.0625,-13.0
344.5,0.54931640625,-0.42724609375,0.732421875,-0.977568895535142,-0.0964384899441511,-0.1678518021179845,22.9375,11.0625,-13.4375
345.0,1.708984375,-0.30517578125,-0.9765625,-0.9756157109286784,-0.1090121158482619,-0.1814020203253273,22.1875,12.5625,-15.0625
345.5,-0.3662109375,0.3662109375,0.42724609375,-0.9753715628528704,-0.1114535966063417,-0.1776177251503036,23.25,13.0,-10.875
346.0,0.48828125,-0.54931640625,0.42724609375,-0.9743949705496384,-0.1102328562273018,-0.1881160924100467,21.9375,14.0625,-14.25
346.5,-0.30517578125,0.1220703125,0.30517578125,-0.9731742301705985,-0.108279671620838,-0.1888485366374706,21.1875,13.0,-13.8125
347.0,-1.03759765625,0.79345703125,0.18310546875,-0.9741508224738304,-0.1048615985595263,-0.1856746116519669,21.9375,16.3125,-16.4375
347.5,0.3662109375,-0.48828125,0.79345703125,-0.9714651936399428,-0.1093783379619739,-0.1905575731681264,20.5,12.5625,-16.4375
348.0,0.06103515625,0.18310546875,0.30517578125,-0.9756157109286784,-0.107913449507126,-0.1864070558793908,21.1875,11.8125,-18.9375
348.5,0.54931640625,-0.48828125,-0.48828125,-0.9695120090334788,-0.1092562639240699,-0.1910458693197424,22.25,13.6875,-15.0625
349.0,1.3427734375,0.1220703125,-0.06103515625,-0.9737846003601184,-0.1109653004547257,-0.1901913510544145,21.5625,11.8125,-14.6875
349.5,-0.06103515625,0.42724609375,-0.48828125,-0.9698782311471909,-0.1218298898281808,-0.1857966856898709,19.8125,14.4375,-15.0625
350.0,1.953125,0.8544921875,-1.46484375,-0.9707327494125186,-0.118900112918485,-0.1925107577745902,20.875,13.0,-17.6875
350.5,-1.8310546875,-1.03759765625,0.732421875,-0.967680898464919,-0.1213415936765648,-0.2022766808069094,21.1875,11.4375,-15.5625
351.0,2.3193359375,0.48828125,-0.54931640625,-0.9833063753166296,-0.1003448591570787,-0.1419721060823389,21.1875,11.8125,-13.8125
351.5,-2.3193359375,-1.5869140625,-2.44140625,-0.9851374858851892,-0.1097445600756859,-0.1372112186040833,23.625,13.375,-14.25
352.0,-3.23486328125,-1.52587890625,0.8544921875,-0.9868465224158453,-0.0592059083834345,-0.1262245551927243,21.5625,13.0,-14.6875
352.5,2.5634765625,7.568359375,-3.35693359375,-0.9469283120212408,-0.1508835108493301,-0.2630695516830958,21.5625,13.0,-14.6875
353.0,5.37109375,-0.9765625,0.18310546875,-0.9686574907681508,-0.1142612994781334,-0.2369457075716422,20.125,14.4375,-15.5625
353.5,-2.38037109375,-5.37109375,-2.74658203125,-0.9635303811761834,-0.1135288552507095,-0.2033753471480452,21.1875,12.5625,-13.4375
354.0,0.18310546875,-1.46484375,-1.0986328125,-0.9752494888149664,-0.1168248542741172,-0.1632129886776329,20.5,14.8125,-12.625
354.5,-0.91552734375,1.40380859375,0.6103515625,-0.9745170445875424,-0.1282998138370921,-0.173589281899472,21.5625,13.6875,-15.5625
355.0,0.42724609375,0.1220703125,0.3662109375,-0.9712210455641348,-0.1250038148136845,-0.1762749107333597,21.1875,13.0,-15.9375
355.5,0.42724609375,-0.06103515625,0.06103515625,-0.9696340830713828,-0.1281777397991882,-0.1805475020599994,21.5625,13.375,-9.625
356.0,3.84521484375,6.34765625,-1.15966796875,-0.978179265724662,-0.119632557145909,-0.2019104586931974,22.9375,13.0,-12.125
356.5,2.74658203125,0.3662109375,0.1220703125,-0.9724417859431744,-0.1204870754112369,-0.184698019348735,22.25,14.4375,-12.125
357.0,-2.5634765625,15.9912109375,1.77001953125,-0.9293496505630664,-0.1147495956297494,-0.2646565141758477,21.9375,12.5625,-10.875
357.5,1.8310546875,-9.94873046875,-1.220703125,-0.9522995696890164,-0.0966826380199591,-0.3099459822382275,22.25,13.6875,-13.4375
358.0,2.62451171875,-2.38037109375,2.50244140625,-0.9493697927793208,-0.1242713705862605,-0.2435377056184575,21.5625,11.4375,-11.25
358.5,10.25390625,14.58740234375,7.01904296875,-0.9597460860011596,-0.0814233832819605,-0.2544022949919126,21.9375,13.0,-11.25
359.0,3.5400390625,2.25830078125,-2.25830078125,-0.9503463850825524,-0.119266335032197,-0.2667317728202155,23.25,12.5625,-10.0
359.5,2.8076171875,1.15966796875,-1.03759765625,-0.933866389965514,-0.1220740379039887,-0.3167821283608508,23.25,12.1875,-11.75
360.0,-0.67138671875,0.244140625,0.732421875,-0.9382610553300575,-0.1091341898861659,-0.304330576494644,22.9375,13.375,-12.125
360.5,-1.77001953125,0.0,0.30517578125,-0.9439985351115452,-0.0991241187780388,-0.2937101351969969,22.9375,11.4375,-9.625
361.0,2.685546875,0.79345703125,-1.220703125,-0.933622241889706,-0.1016876735740226,-0.3238624225592822,24.3125,13.0,-9.625
361.5,-1.03759765625,0.18310546875,0.54931640625,-0.9391155735953856,-0.1046174504837183,-0.3183690908536027,21.5625,10.6875,-11.75
362.0,0.3662109375,0.42724609375,-0.54931640625,-0.9404583880123296,-0.1014435254982146,-0.3182470168156987,23.625,11.4375,-10.5
362.5,0.3662109375,0.54931640625,-0.244140625,-0.9369182409131138,-0.1103549302652058,-0.3194677571947386,23.25,13.6875,-10.0
363.0,-0.48828125,1.28173828125,0.54931640625,-0.93557542649617,-0.107791375469222,-0.3289895321512497,22.25,13.375,-7.4375
363.5,-0.91552734375,0.3662109375,-0.1220703125,-0.9367961668752098,-0.1047395245216223,-0.3274025696584979,23.9375,13.6875,-4.5
364.0,0.48828125,0.91552734375,0.30517578125,-0.935209204382458,-0.1125522629474776,-0.3271584215826899,23.625,13.375,-11.75
364.5,-0.79345703125,0.67138671875,-0.30517578125,-0.933988464003418,-0.1053498947111423,-0.326303903317362,22.625,13.6875,-10.875
365.0,0.8544921875,0.30517578125,0.06103515625,-0.935087130344554,-0.1070589312417981,-0.3324076052125614,22.5625,13.375,-7.9375
365.5,-0.6103515625,-0.06103515625,0.1220703125,-0.933378093813898,-0.1102328562273018,-0.3249610889004181,22.5625,14.4375,-12.125
366.0,-1.03759765625,-0.3662109375,-0.6103515625,-0.9375286111026336,-0.1047395245216223,-0.3197119052705466,21.9375,12.1875,-13.4375
366.5,-1.220703125,-1.89208984375,1.03759765625,-0.934232612079226,-0.1005890072328867,-0.3302102725302896,23.25,13.6875,-12.125
367.0,10.6201171875,3.96728515625,-4.7607421875,-0.9447309793389692,-0.0965605639820551,-0.3054292428357799,21.9375,14.4375,-14.6875
367.5,2.197265625,-1.64794921875,3.96728515625,-0.9413129062776574,-0.1229285561693167,-0.2730796227912229,21.5625,14.0625,-13.4375
368.0,-7.6904296875,6.53076171875,-0.42724609375,-0.9293496505630664,-0.1107211523789178,-0.2745445112460707,22.1875,15.5625,-11.75
368.5,-9.521484375,-10.7421875,0.8544921875,-0.9596240119632558,-0.097048860133671,-0.3003021332438124,22.5625,14.8125,-15.9375
369.0,-1.77001953125,-1.15966796875,-4.150390625,-0.9598681600390636,-0.1167027802362132,-0.2694174016541032,21.1875,13.6875,-12.125
369.5,11.8408203125,3.84521484375,0.48828125,-0.9526657918027284,-0.1246375926999725,-0.2584307382427442,22.25,13.375,-13.4375
370.0,0.6103515625,5.37109375,0.91552734375,-0.9375286111026336,-0.1373332926419873,-0.3132419812616351,22.9375,13.6875,-9.625
370.5,-0.67138671875,-1.0986328125,2.685546875,-0.9512009033478804,-0.0990020447401349,-0.2744224372081667,22.9375,13.0,-9.625
371.0,0.18310546875,1.28173828125,0.06103515625,-0.9498580889309366,-0.1156041138950773,-0.2847987304300058,22.5625,11.8125,-10.4375
371.5,1.5869140625,0.1220703125,-0.42724609375,-0.9450972014526812,-0.1159703360087893,-0.2811365092928861,21.9375,15.1875,-8.3125
372.0,2.01416015625,0.48828125,0.3662109375,-0.9421674245429852,-0.1103549302652058,-0.3006683553575243,22.5625,13.375,-5.8125
372.5,-2.0751953125,-0.18310546875,-0.54931640625,-0.9441206091494492,-0.097293008209479,-0.2944425794244209,23.25,12.5625,-11.25
373.0,0.8544921875,1.64794921875,-0.1220703125,-0.9443647572252571,-0.1135288552507095,-0.303964354380932,21.9375,15.1875,-10.875
373.5,-4.94384765625,-0.48828125,0.48828125,-0.945463423566393,-0.1108432264168218,-0.2963957640308847,21.9375,13.0,-13.8125
374.0,2.685546875,1.28173828125,0.06103515625,-0.9375286111026336,-0.10864589373455,-0.3183690908536027,21.9375,13.0,-8.3125
374.5,6.16455078125,0.79345703125,0.91552734375,-0.9382610553300575,-0.1038850062562944,-0.3184911648915067,23.9375,13.375,-8.75
375.0,-0.30517578125,0.18310546875,0.732421875,-0.9408246101260416,-0.1049836725974303,-0.30359813226722,21.5625,11.8125,-18.9375
375.5,-2.8076171875,7.50732421875,-3.47900390625,-0.9292275765251624,-0.1132847071749015,-0.3001800592059084,21.5625,11.8125,-15.0625
376.0,1.28173828125,-1.28173828125,2.50244140625,-0.9276406140324106,-0.1113315225684377,-0.2959074678792688,22.5625,12.5625,-13.0
376.5,5.43212890625,-32.958984375,-2.44140625,-0.9732963042085024,-0.0878933072908719,-0.2158268990142521,20.875,11.8125,-10.0
377.0,3.23486328125,-0.9765625,-4.5166015625,-0.980010376293222,-0.1467329935605945,-0.1202429273354289,23.25,13.6875,-13.0
377.5,-6.53076171875,30.45654296875,4.08935546875,-0.9737846003601184,-0.0854518265327921,-0.1029084139530625,23.9375,14.0625,-10.875
378.0,0.48828125,4.69970703125,2.685546875,-0.936429944761498,-0.1038850062562944,-0.2978606524857325,23.25,13.0,-7.4375
378.5,0.0,2.74658203125,-0.67138671875,-0.9397259437849056,-0.118778038880581,-0.3094576860866115,24.3125,13.375,-12.125
379.0,0.79345703125,0.79345703125,0.54931640625,-0.9482711264381848,-0.1054719687490463,-0.3000579851680044,22.25,13.0,-10.4375
379.5,-0.48828125,0.3662109375,-0.67138671875,-0.9399700918607136,-0.1120639667958617,-0.3092135380108035,22.9375,15.1875,-10.0
380.0,2.25830078125,-0.06103515625,0.1220703125,-0.9386272774437696,-0.119510483108005,-0.3120212408825953,23.25,12.5625,-8.75
380.5,-1.03759765625,0.244140625,-0.6103515625,-0.9380169072542496,-0.1237830744346446,-0.3125095370342112,22.1875,14.4375,-12.125
381.0,0.54931640625,0.79345703125,0.18310546875,-0.9375286111026336,-0.1312295907467879,-0.314706869716483,21.5625,14.8125,-12.625
381.5,-0.9765625,0.48828125,0.30517578125,-0.9374065370647298,-0.1241492965483565,-0.315073091830195,21.9375,12.1875,-10.875
382.0,-3.5400390625,-4.21142578125,0.0,-0.924344615009003,-0.1363567003387554,-0.3422956022827845,22.25,12.5625,-10.0
382.5,-1.77001953125,1.220703125,-1.5869140625,-0.9415570543534654,-0.1318399609363078,-0.2753990295113986,23.25,14.0625,-10.4375
383.0,-3.35693359375,8.7890625,4.45556640625,-0.9377727591784416,-0.0963164159062471,-0.3000579851680044,22.25,13.375,-13.8125
383.5,-0.79345703125,-0.1220703125,2.13623046875,-0.9488814966277048,-0.1098666341135898,-0.2900479140598773,21.9375,13.0,-10.0
384.0,-0.48828125,0.244140625,0.42724609375,-0.9382610553300575,-0.1124301889095736,-0.3000579851680044,22.5625,13.375,-10.875
384.5,-0.67138671875,0.67138671875,0.3662109375,-0.9450972014526812,-0.1125522629474776,-0.3031098361156041,24.3125,12.5625,-11.25
385.0,0.18310546875,0.42724609375,0.54931640625,-0.9448530533768732,-0.1149937437055574,-0.3016449476607562,20.5,14.0625,-18.5
385.5,-1.03759765625,0.06103515625,-0.48828125,-0.9407025360881376,-0.1165807061983092,-0.3007904293954283,20.125,15.5625,-16.4375
386.0,-1.46484375,-2.25830078125,0.67138671875,-0.9396038697470016,-0.1064485610522782,-0.3023773918881802,20.875,15.1875,-15.5625
386.5,2.0751953125,-19.287109375,0.6103515625,-0.955107272560808,-0.1274452955717642,-0.2338938566240425,22.9375,12.1875,-12.625
387.0,-2.13623046875,4.2724609375,-3.0517578125,-0.97964415417951,-0.1336710715048677,-0.1425824762718588,22.9375,12.1875,-10.4375
387.5,-0.1220703125,-1.708984375,3.47900390625,-0.9856257820368052,-0.1115756706442457,-0.0982696005127109,23.625,13.6875,-12.125
388.0,8.48388671875,8.30078125,-5.06591796875,-0.9427777947325052,-0.1261024811548204,-0.3482772301400799,23.25,11.4375,-9.1875
388.5,-2.685546875,1.40380859375,1.03759765625,-0.9332560197759942,-0.1263466292306283,-0.3056733909115878,22.9375,13.375,-10.4375
389.0,-1.8310546875,1.15966796875,-1.220703125,-0.93374431592761,-0.1164586321604052,-0.3162938322092349,25.0,12.1875,-9.625
389.5,0.54931640625,1.64794921875,-0.30517578125,-0.93374431592761,-0.1220740379039887,-0.3170262764366588,24.3125,13.6875,-12.125
390.0,-0.1220703125,0.79345703125,-0.244140625,-0.9332560197759942,-0.1210974456007568,-0.3203222754600665,24.3125,15.1875,-10.4375
390.5,0.244140625,0.30517578125,0.0,-0.93618579668569,-0.1256141850032044,-0.3245948667867061,23.25,13.6875,-9.625
391.0,-2.86865234375,-0.1220703125,0.1220703125,-0.933988464003418,-0.1259804071169164,-0.3220313119907224,23.9375,12.5625,-13.0
391.5,0.9765625,-0.8544921875,-1.64794921875,-0.9398480178228096,-0.1149937437055574,-0.3010345774712363,21.9375,12.5625,-9.625
392.0,13.5498046875,-7.26318359375,0.54931640625,-0.9265419476912748,-0.1182897427289651,-0.2952970976897488,22.5625,13.0,-13.0
392.5,4.33349609375,4.57763671875,-0.8544921875,-0.935941648609882,-0.1480758079775384,-0.30420850245674,23.25,14.0625,-13.8125
393.0,-1.03759765625,2.197265625,-0.732421875,-0.9415570543534654,-0.1323282570879238,-0.2938322092349009,23.25,13.6875,-11.25
393.5,-0.6103515625,0.1220703125,0.6103515625,-0.9402142399365216,-0.1208532975249488,-0.3020111697744682,22.25,13.375,-11.25
394.0,-0.9765625,0.06103515625,0.732421875,-0.9430219428083132,-0.107913449507126,-0.3118991668446913,22.1875,12.5625,-10.875
394.5,-0.42724609375,1.46484375,0.3662109375,-0.936307870723594,-0.1170690023499252,-0.3075045014801477,23.9375,13.6875,-7.9375
395.0,1.28173828125,0.67138671875,0.48828125,-0.9393597216711936,-0.1201208532975249,-0.3072603534043397,22.9375,13.6875,-15.0625
395.5,0.8544921875,-1.03759765625,1.52587890625,-0.9408246101260416,-0.1093783379619739,-0.3037202063051241,20.875,11.4375,-15.9375
396.0,-0.48828125,0.6103515625,-0.79345703125,-0.9396038697470016,-0.1063264870143742,-0.3048188726462599,19.8125,11.8125,-15.5625
396.5,-0.18310546875,0.54931640625,0.06103515625,-0.9430219428083132,-0.1069368572038941,-0.3092135380108035,21.9375,13.375,-12.125
397.0,9.765625,-17.822265625,1.40380859375,-0.9503463850825524,-0.1021759697256386,-0.2752769554734947,23.625,12.1875,-14.25
397.5,2.8076171875,-2.74658203125,0.54931640625,-0.9830622272408216,-0.1182897427289651,-0.1329386272774437,22.1875,11.4375,-11.75
398.0,-5.79833984375,-2.86865234375,1.03759765625,-0.9724417859431744,-0.1264687032685323,-0.1048615985595263,23.25,13.375,-10.0
398.5,-1.708984375,16.17431640625,1.28173828125,-0.954496902371288,-0.0988799707022309,-0.2775963621936704,23.25,13.0,-10.875
399.0,-0.30517578125,2.50244140625,-0.67138671875,-0.9491256447035128,-0.1042512283700064,-0.2879726554155095,22.9375,15.1875,-11.25
399.5,0.79345703125,1.03759765625,-1.89208984375,-0.9438764610736412,-0.1213415936765648,-0.2910245063631092,22.9375,11.0625,-11.25
400.0,-0.06103515625,1.77001953125,-0.6103515625,-0.9391155735953856,-0.1237830744346446,-0.3067720572527238,23.625,11.0625,-10.0
400.5,-0.54931640625,0.30517578125,-0.244140625,-0.9383831293679616,-0.1235389263588366,-0.3117770928067873,22.9375,12.5625,-10.4375
401.0,-0.244140625,0.732421875,0.244140625,-0.9372844630268258,-0.1208532975249488,-0.3172704245124668,21.5625,13.375,-7.0625
401.5,-0.06103515625,-0.244140625,0.30517578125,-0.9370403149510178,-0.1239051484725486,-0.3133640552995391,22.1875,13.375,-12.625
402.0,-3.72314453125,-2.13623046875,-0.54931640625,-0.9314249092074344,-0.1206091494491409,-0.3236182744834742,22.25,13.6875,-11.75
402.5,-7.6904296875,5.79833984375,-7.32421875,-0.9425336466566973,-0.1278115176854762,-0.2570879238258003,20.875,14.8125,-13.8125
403.0,-2.62451171875,-0.244140625,3.5400390625,-0.9428998687704092,-0.118655964842677,-0.2843104342783898,21.9375,15.5625,-12.625
403.5,-6.34765625,-0.91552734375,0.79345703125,-0.9512009033478804,-0.1097445600756859,-0.2468337046418653,20.125,15.9375,-14.25
404.0,-1.77001953125,-5.2490234375,-3.90625,-0.9623096407971434,-0.1103549302652058,-0.2313303018280587,19.0625,14.0625,-14.25
404.5,12.02392578125,15.380859375,-5.7373046875,-0.9697561571092868,-0.1442915128025147,-0.2873622852259895,21.5625,14.4375,-13.4375
405.0,-6.8359375,-3.84521484375,-0.42724609375,-0.935819574571978,-0.1783501693777276,-0.2861415448469496,20.875,14.0625,-15.9375
405.5,-4.33349609375,-1.77001953125,0.732421875,-0.9472945341349528,-0.1538132877590258,-0.2487868892483291,21.5625,13.6875,-14.6875
406.0,-1.46484375,-15.380859375,5.06591796875,-0.9599902340769676,-0.1256141850032044,-0.1699270607623523,23.625,13.0,-11.75
406.5,0.48828125,-0.9765625,0.244140625,-0.9740287484359264,-0.1478316599017304,-0.1402630695516831,22.5625,15.9375,-11.25
407.0,-5.615234375,-6.28662109375,-0.9765625,-0.966704306161687,-0.1665089877010406,-0.1181676686910611,22.625,19.0,-5.8125
407.5,-0.3662109375,24.35302734375,6.8359375,-0.9510788293099764,-0.141361735892819,-0.3015228736228522,20.5,23.5625,-2.375
408.0,-8.056640625,2.74658203125,4.33349609375,-0.9614551225318156,-0.0515152439954832,-0.2845545823541978,20.5,22.0625,2.625
408.5,-34.423828125,-0.18310546875,-13.5498046875,-0.9437543870357372,-0.0682393871883297,-0.3005462813196203,17.6875,24.6875,0.5
409.0,-27.40478515625,-0.54931640625,-6.40869140625,-0.9530320139164404,-0.0789819025238807,-0.2703939939573351,20.125,22.8125,2.625
409.5,-18.4326171875,-1.15966796875,-0.54931640625,-0.9403363139744256,-0.0200201422162541,-0.3275246436964019,20.125,22.4375,1.375
410.0,-2.38037109375,2.0751953125,-3.47900390625,-0.9496139408551286,-0.0531022064882351,-0.2884609515671255,22.1875,21.6875,-1.125
410.5,-2.01416015625,0.6103515625,-0.91552734375,-0.933622241889706,-0.0654316843165379,-0.3315530869472335,20.5,23.1875,3.0625
411.0,-0.67138671875,-1.0986328125,0.30517578125,-0.9396038697470016,-0.053590502639851,-0.3355815301980651,19.8125,23.5625,1.375
411.5,0.6103515625,-0.06103515625,-0.06103515625,-0.9396038697470016,-0.0568865016632587,-0.3305764946440016,19.4375,22.4375,3.0625
412.0,-2.86865234375,0.30517578125,0.18310546875,-0.9432660908841212,-0.0520035401470992,-0.3313089388714255,20.875,21.25,-2.0
412.5,0.48828125,0.79345703125,0.732421875,-0.9375286111026336,-0.0526139103366191,-0.3357036042359691,20.875,23.5625,1.375
413.0,0.30517578125,0.06103515625,0.06103515625,-0.9385052034058656,-0.0574968718527787,-0.336802270577105,19.0625,23.5625,-2.375
413.5,-6.2255859375,-0.6103515625,-0.1220703125,-0.9409466841639454,-0.0498062074648274,-0.3173924985503707,21.5625,20.5,-5.8125
414.0,0.30517578125,-3.0517578125,-1.28173828125,-0.9430219428083132,-0.0676290169988097,-0.2887050996429334,20.5,20.125,-7.4375
414.5,9.82666015625,0.244140625,3.72314453125,-0.9405804620502336,-0.0245368816187017,-0.3072603534043397,22.25,20.875,-7.0625
415.0,41.015625,4.08935546875,6.7138671875,-0.955839716788232,-0.0468764305551316,-0.2805261391033662,22.25,20.875,-4.125
415.5,3.72314453125,2.9296875,-1.8310546875,-0.9266640217291788,-0.1511276589251381,-0.3184911648915067,21.1875,23.1875,-4.125
416.0,5.126953125,-3.23486328125,3.72314453125,-0.9370403149510178,-0.1069368572038941,-0.2744224372081667,21.1875,22.4375,-1.125
416.5,-2.74658203125,4.57763671875,-7.2021484375,-0.9381389812921536,-0.0837427900021363,-0.2735679189428388,20.125,22.0625,-4.5
417.0,-20.263671875,1.708984375,-2.38037109375,-0.9387493514816736,-0.1003448591570787,-0.3117770928067873,21.1875,22.0625,-2.375
417.5,-2.01416015625,0.54931640625,4.0283203125,-0.9447309793389692,-0.0075685903500473,-0.3101901303140355,21.9375,22.0625,-4.5
418.0,-4.5166015625,2.01416015625,-5.79833984375,-0.9389934995574816,-0.0706808679464095,-0.3327738273262733,21.5625,23.1875,0.125
418.5,-1.46484375,-0.732421875,-0.1220703125,-0.9383831293679616,-0.0659199804681539,-0.3278908658101138,22.25,22.4375,-2.0
419.0,-1.40380859375,-0.3662109375,-0.6103515625,-0.93496505630665,-0.0726340525528733,-0.326181829279458,20.875,21.6875,-2.375
419.5,-1.0986328125,0.48828125,-0.54931640625,-0.9374065370647298,-0.06518753624073,-0.3295999023407697,22.5625,18.625,-3.625
420.0,-0.91552734375,0.30517578125,-0.1220703125,-0.9330118717001862,-0.0672627948850978,-0.3320413830988494,22.25,15.1875,-9.1875
420.5,0.91552734375,0.244140625,-0.06103515625,-0.934232612079226,-0.0627460554826502,-0.3330179754020813,22.5625,12.1875,-13.8125
421.0,8.36181640625,-1.220703125,4.69970703125,-0.9289834284493546,-0.0288094729453413,-0.3438825647755363,22.625,8.375,-11.75
421.5,33.935546875,-5.859375,12.8173828125,-0.9402142399365216,-0.064333017975402,-0.3541367839594714,25.0,5.375,-12.125
422.0,12.5732421875,-1.64794921875,4.0283203125,-0.955595568712424,-0.1022980437635426,-0.2161931211279641,22.5625,3.0625,-10.875
422.5,39.85595703125,13.5498046875,-2.9296875,-0.9725638599810784,-0.1127964110232856,-0.3200781273842585,24.6875,3.8125,-10.4375
423.0,35.15625,-4.5166015625,10.3759765625,-0.9447309793389692,-0.2292550431836909,-0.3026215399639881,23.25,4.625,-11.75
423.5,-0.18310546875,1.0986328125,0.06103515625,-0.924100466933195,-0.184698019348735,-0.3166600543229468,23.625,3.4375,-13.4375
424.0,0.0,0.244140625,-0.1220703125,-0.935209204382458,-0.1347697378460036,-0.3112887966551713,23.25,12.5625,-7.4375
424.5,-1.46484375,-3.47900390625,-4.7607421875,-0.923734244819483,-0.1676076540421766,-0.3067720572527238,19.4375,17.5,-8.3125
425.0,-0.244140625,0.79345703125,-1.77001953125,-0.9254432813501388,-0.1834772789696951,-0.3054292428357799,21.1875,19.0,-9.1875
425.5,-22.03369140625,-2.86865234375,-6.34765625,-0.9320352793969544,-0.1818903164769432,-0.293465987121189,22.25,17.125,-10.4375
426.0,-55.96923828125,-13.12255859375,-12.20703125,-0.9377727591784416,-0.1153599658192693,-0.3172704245124668,21.9375,17.125,-7.9375
426.5,-20.99609375,-3.5400390625,-4.94384765625,-0.9540086062196722,-0.1129184850611896,-0.250007629627369,19.8125,16.6875,-14.6875
427.0,8.7890625,0.48828125,3.5400390625,-0.9421674245429852,-0.1245155186620685,-0.3097018341624195,17.3125,17.5,-14.6875
427.5,8.97216796875,2.25830078125,3.60107421875,-0.9447309793389692,-0.1102328562273018,-0.2944425794244209,19.8125,17.875,-17.1875
428.0,8.9111328125,-14.7705078125,7.01904296875,-0.9438764610736412,-0.1088900418103579,-0.3200781273842585,20.875,17.875,-12.125
428.5,0.6103515625,-5.79833984375,-0.18310546875,-0.9714651936399428,-0.130008850367748,-0.1213415936765648,21.1875,15.9375,-12.125
429.0,2.685546875,-1.46484375,0.0,-0.979277932065798,-0.1237830744346446,-0.0808130130924405,23.625,14.8125,-9.625
429.5,15.2587890625,26.2451171875,7.99560546875,-0.9818414868617816,-0.0892361217078158,-0.119632557145909,23.9375,16.3125,-10.875
430.0,-9.27734375,6.04248046875,-1.0986328125,-0.935087130344554,-0.1350138859218115,-0.3121433149204993,22.5625,16.3125,-10.875
430.5,-0.48828125,1.03759765625,0.732421875,-0.9399700918607136,-0.1004669331949827,-0.30420850245674,20.875,14.0625,-8.3125
431.0,7.32421875,-1.46484375,0.48828125,-0.9399700918607136,-0.1273232215338602,-0.2983489486373485,22.625,15.5625,-9.625
431.5,1.77001953125,-0.6103515625,0.91552734375,-0.9419232764671772,-0.1113315225684377,-0.2976165044099246,22.5625,18.25,-5.8125
432.0,-4.82177734375,0.79345703125,1.52587890625,-0.9409466841639454,-0.1066927091280861,-0.3016449476607562,19.8125,17.5,-7.4375
432.5,-4.150390625,-1.77001953125,1.220703125,-0.9446089053010652,-0.0809350871303445,-0.3061616870632038,20.125,17.125,-6.625
433.0,1.40380859375,2.0751953125,-0.06103515625,-0.9469283120212408,-0.086794640949736,-0.3054292428357799,21.1875,17.125,-12.625
433.5,-13.36669921875,2.685546875,-6.2255859375,-0.957670827356792,-0.1057161168248542,-0.2633136997589038,22.1875,14.0625,-9.625
434.0,-3.72314453125,1.708984375,2.62451171875,-0.934232612079226,-0.0958281197546311,-0.3193456831568346,21.1875,15.1875,-12.125
434.5,4.82177734375,-3.84521484375,2.5634765625,-0.9719534897915586,-0.0578630939664906,-0.3418073061311685,20.125,17.125,-13.4375
435.0,5.0048828125,0.30517578125,0.06103515625,-0.945829645680105,-0.0555436872463148,-0.2839442121646778,20.125,15.9375,-14.25
435.5,0.9765625,0.0,2.38037109375,-0.9609668263801996,-0.0789819025238807,-0.282845545823542,21.1875,17.125,-10.4375
436.0,1.0986328125,-14.5263671875,0.18310546875,-0.9619434186834316,-0.0833765678884243,-0.2846766563921018,22.25,16.3125,-9.625
436.5,-2.38037109375,-4.08935546875,-2.3193359375,-0.979766228217414,-0.0805688650166325,-0.1164586321604052,22.25,15.1875,-10.0
437.0,-0.42724609375,-0.67138671875,-0.1220703125,-0.9839167455061496,-0.1090121158482619,-0.1159703360087893,22.5625,15.5625,-11.25
437.5,-8.36181640625,22.39990234375,5.126953125,-0.9145786919766838,-0.1153599658192693,-0.3046967986083559,23.25,17.125,-9.1875
438.0,-2.197265625,3.84521484375,2.01416015625,-0.9326456495864742,-0.0937528611102633,-0.3114108706930753,21.1875,15.9375,-10.875
438.5,0.42724609375,1.77001953125,1.0986328125,-0.9461958677938168,-0.0872829371013519,-0.3172704245124668,20.125,17.875,-14.6875
439.0,0.9765625,1.52587890625,-0.6103515625,-0.9387493514816736,-0.086672566911832,-0.3208105716116824,20.125,17.875,-11.25
439.5,-0.244140625,0.0,0.0,-0.9366740928373058,-0.0814233832819605,-0.3281350138859218,19.4375,17.125,-13.8125
440.0,3.35693359375,-18.5546875,-4.5166015625,-0.9720755638294626,-0.0937528611102633,-0.2135074922940763,20.875,17.125,-12.125
440.5,-1.953125,-4.21142578125,-1.64794921875,-0.9813531907101656,-0.0950956755272072,-0.1468550675984984,21.5625,16.3125,-6.625
441.0,-0.06103515625,-1.64794921875,0.42724609375,-0.9862361522263252,-0.1052278206732383,-0.0946073793755913,22.9375,15.5625,-10.4375
441.5,-2.74658203125,23.37646484375,6.7138671875,-0.957060457167272,-0.1044953764458143,-0.1919003875850703,22.1875,16.6875,-10.0
442.0,3.90625,2.13623046875,3.11279296875,-0.9580370494705038,-0.0889919736320078,-0.2515945921201208,21.9375,18.25,-7.9375
442.5,-0.54931640625,-0.732421875,1.46484375,-0.9579149754325998,-0.0744651631214331,-0.2795495468001343,21.5625,15.9375,-7.0625
443.0,-0.06103515625,0.3662109375,0.1220703125,-0.95608386486404,-0.0838648640400402,-0.2696615497299112,22.9375,16.3125,-7.4375
443.5,-2.685546875,4.39453125,6.4697265625,-0.9579149754325998,-0.0549333170567949,-0.3231299783318582,22.1875,17.5,-9.5625
444.0,-8.30078125,1.46484375,0.0,-0.945219275490585,-0.1075472273934141,-0.2988372447889645,23.25,16.6875,-10.875
444.5,1.15966796875,-0.9765625,0.06103515625,-0.9531540879543444,-0.0891140476699118,-0.2788171025727103,22.5625,15.9375,-7.4375
445.0,10.55908203125,-2.50244140625,0.42724609375,-0.9468062379833369,-0.119022186956389,-0.2547685171056245,21.9375,14.8125,-7.4375
445.5,-2.86865234375,1.953125,2.685546875,-0.9396038697470016,-0.108279671620838,-0.2669759208960234,21.9375,15.5625,-10.0
446.0,-1.15966796875,1.953125,0.8544921875,-0.9531540879543444,-0.0797143467513046,-0.2852870265816217,23.625,14.4375,-10.0
446.5,-2.197265625,-2.197265625,2.5634765625,-0.9422894985808892,-0.0889919736320078,-0.2941984313486129,21.9375,15.5625,-10.0
447.0,0.3662109375,-0.244140625,1.64794921875,-0.9603564561906796,-0.0688497573778496,-0.2749107333597827,24.3125,16.3125,-7.4375
447.5,0.54931640625,0.244140625,-0.732421875,-0.9527878658406324,-0.0598162785729545,-0.2873622852259895,22.9375,15.5625,-5.8125
448.0,-2.685546875,-1.46484375,-0.30517578125,-0.955839716788232,-0.0627460554826502,-0.2813806573686941,21.9375,16.6875,-4.5
448.5,-2.38037109375,2.13623046875,-0.8544921875,-0.9532761619922484,-0.0557878353221228,-0.2878505813776055,22.25,17.5,-4.9375
449.0,1.46484375,-0.79345703125,-0.42724609375,-0.934720908230842,-0.054078798791467,-0.3386333811456648,21.9375,15.1875,-4.125
449.5,-4.8828125,-1.03759765625,1.46484375,-0.9477828302865688,-0.053590502639851,-0.2989593188268685,21.9375,19.0,-10.4375
450.0,0.54931640625,-1.220703125,-0.48828125,-0.9418012024292732,-0.0687276833399456,-0.3227637562181463,20.5,20.5,-9.1875
450.5,-1.77001953125,-0.67138671875,0.54931640625,-0.9585253456221198,-0.0416272469252601,-0.2922452467421491,20.5,19.0,-7.4375
451.0,-6.34765625,1.0986328125,1.77001953125,-0.9474166081728568,-0.032227546006653,-0.3072603534043397,20.125,16.6875,-15.0625
451.5,-5.31005859375,-6.34765625,3.60107421875,-0.9389934995574816,-0.0529801324503311,-0.2943205053865169,20.125,15.9375,-15.9375
452.0,-7.8125,1.89208984375,-12.51220703125,-0.9709768974883268,-0.0701925717947935,-0.1068147831659901,19.4375,15.5625,-16.8125
452.5,21.05712890625,2.8076171875,5.67626953125,-0.97964415417951,-0.1016876735740226,-0.1709036530655842,20.875,17.875,-12.125
453.0,0.244140625,-20.99609375,-1.77001953125,-0.9477828302865688,-0.0847193823053682,-0.1914120914334544,20.5,19.75,-8.3125
453.5,5.615234375,-6.28662109375,0.6103515625,-0.9820856349375896,-0.0981475264748069,-0.0896023438215277,22.1875,19.0,-8.75
454.0,-0.244140625,3.90625,-0.1220703125,-0.9909970397045808,-0.1071810052797021,-0.032349620044557,20.125,20.125,-8.3125
454.5,2.197265625,15.2587890625,0.91552734375,-0.9522995696890164,-0.0843531601916562,-0.2772301400799585,21.9375,16.3125,-6.1875
455.0,-10.1318359375,-9.21630859375,-1.40380859375,-0.9660939359721672,-0.1384319589831232,-0.2567217017120883,21.5625,15.1875,-7.4375
455.5,-4.82177734375,4.21142578125,0.3662109375,-0.93557542649617,-0.1009552293465987,-0.3054292428357799,23.625,12.1875,-9.1875
456.0,8.36181640625,-2.38037109375,3.60107421875,-0.945707571642201,-0.1251258888515884,-0.2525711844233527,22.9375,10.3125,-10.875
456.5,-3.96728515625,7.26318359375,1.3427734375,-0.9614551225318156,-0.1026642658772545,-0.3114108706930753,22.5625,13.0,-12.125
457.0,8.544921875,2.3193359375,2.8076171875,-0.924710837122715,-0.0666524246955778,-0.3222754600665303,20.875,13.6875,-14.25
457.5,20.44677734375,-1.89208984375,8.056640625,-0.9212927640614031,-0.108767967772454,-0.3496200445570238,21.5625,13.375,-14.6875
458.0,-11.16943359375,-3.72314453125,-0.3662109375,-0.9509567552720724,-0.0277108066042054,-0.3173924985503707,19.4375,16.6875,-14.25
458.5,7.26318359375,-8.9111328125,5.55419921875,-0.9481490524002808,0.0158696249275185,-0.3140964995269631,20.875,17.5,-17.6875
459.0,4.08935546875,-13.18359375,-3.41796875,-0.9619434186834316,-0.0904568620868556,-0.2319406720175786,21.875,17.5,-9.1875
459.5,-7.14111328125,-0.244140625,-5.31005859375,-0.9968565935239724,-0.1018097476119266,-0.162846766563921,23.25,15.5625,-9.1875
460.0,-11.23046875,-12.75634765625,-4.0283203125,-0.9740287484359264,-0.0920438245796075,-0.1645558030945768,20.125,15.9375,-14.25
460.5,-4.2724609375,2.25830078125,-0.30517578125,-1.00015259254738,-0.0561540574358348,-0.0661641285439619,20.125,16.6875,-14.25
461.0,-2.0751953125,21.8505859375,-4.94384765625,-0.9481490524002808,-0.0725119785149693,-0.2951750236518448,21.5625,16.3125,-16.8125
461.5,-1.8310546875,0.48828125,-0.30517578125,-0.9593798638874478,-0.0583513901181066,-0.2541581469161046,21.9375,16.3125,-10.875
462.0,-3.662109375,-14.16015625,-6.34765625,-0.978667561876278,-0.0631122775963621,-0.1934873500778222,21.5625,17.5,-9.625
462.5,12.6953125,-5.0048828125,-3.90625,-0.9969786675618764,-0.0938749351481673,-0.1118198187200537,22.25,17.5,-15.9375
463.0,-2.99072265625,-1.3427734375,1.28173828125,-0.9878231147190772,-0.0791039765617847,-0.0461439863277077,19.8125,15.5625,-15.0625
463.5,-3.23486328125,30.029296875,-2.197265625,-0.9759819330423902,-0.1334269234290597,-0.2099673451948606,20.125,15.5625,-15.9375
464.0,1.8310546875,1.52587890625,0.3662109375,-0.9668263801995912,-0.0560319833979308,-0.2528153324991607,22.5625,15.9375,-9.625
464.5,1.28173828125,-11.16943359375,0.3662109375,-0.9878231147190772,-0.1103549302652058,-0.1728568376720481,21.5625,14.8125,-6.1875
465.0,-1.220703125,-4.45556640625,1.46484375,-0.9945371868037964,-0.0925321207312235,-0.0683614612262337,23.25,15.9375,-9.625
465.5,-2.99072265625,7.8125,0.732421875,-0.9900204474013488,-0.1325724051637318,-0.1224402600177007,22.25,15.9375,-7.0625
466.0,0.3662109375,6.34765625,0.30517578125,-0.9422894985808892,-0.1090121158482619,-0.3017670216986602,21.9375,17.125,-5.375
466.5,2.44140625,7.080078125,-1.03759765625,-0.902127140110477,-0.1569872127445295,-0.4771874141666921,22.9375,15.9375,-8.3125
467.0,-1.64794921875,-1.3427734375,0.06103515625,-0.9400921658986175,-0.0926541947691274,-0.3228858302560503,23.625,17.125,-2.375
467.5,-16.9677734375,0.6103515625,-12.63427734375,-0.9828180791650136,-0.0408948026978362,-0.2729575487533189,23.9375,14.8125,-4.5
468.0,-0.67138671875,13.97705078125,19.59228515625,-0.9076204718161563,-0.2143620105594043,-0.2663655507065035,23.625,16.6875,-4.5
468.5,12.14599609375,0.9765625,0.54931640625,-0.9092074343089084,-0.053590502639851,-0.3794061098055971,26.0625,14.8125,-3.625
