time,LSHO_gyr_x,LSHO_gyr_y,LSHO_gyr_z,LSHO_acc_x,LSHO_acc_y,LSHO_acc_z,LSHO_mag_x,LSHO_mag_y,LSHO_mag_z
0.0,0.244140625,0.1220703125,-0.1220703125,0.250007629627369,-0.4332407605212561,-0.8788109988708152,-18.5625,35.75,14.5625
0.5,0.42724609375,0.06103515625,-0.30517578125,0.2515945921201208,-0.4360484633930478,-0.879787591174047,-18.875,33.0,14.1875
1.0,0.6103515625,0.30517578125,-0.18310546875,0.2480544450209051,-0.4351939451277199,-0.8762474440748313,-17.8125,36.5625,16.125
1.5,-0.1220703125,0.06103515625,-0.48828125,0.2448805200354014,-0.4369029816583758,-0.8764915921506393,-16.4375,36.5625,12.9375
2.0,0.06103515625,-0.1220703125,-0.18310546875,0.2490310373241371,-0.4361705374309518,-0.8780785546433912,-18.1875,35.75,14.9375
2.5,0.3662109375,0.244140625,0.0,0.2511062959685049,-0.4311655018768883,-0.8784447767571032,-20.25,35.0,14.9375
3.0,-0.30517578125,-0.48828125,0.54931640625,0.2534257026886807,-0.445692312387463,-0.8667256691183203,-18.5625,34.625,14.9375
3.5,0.67138671875,0.3662109375,-0.244140625,0.2539139988402966,-0.4438612018189031,-0.8739280373546556,-18.875,34.1875,18.0625
4.0,0.3662109375,0.8544921875,-0.18310546875,0.2697836237678152,-0.4487441633350627,-0.8751487777336955,-16.75,35.0,15.375
4.5,7.38525390625,1.8310546875,-4.57763671875,0.2904141361735893,-0.4513077181310465,-0.869045075838496,-19.1875,35.75,18.0625
5.0,21.17919921875,-13.671875,14.22119140625,0.1291543321024201,-0.5470137638477737,-0.8239997558519242,-12.9375,38.5,11.4375
5.5,6.103515625,6.16455078125,0.3662109375,-0.0131839960936307,-0.6222113711966307,-0.7853022858363597,-10.5,39.6875,8.3125
6.0,-50.78125,28.13720703125,-53.955078125,0.1749320963164159,-0.5295571764275033,-0.8106936857203895,-19.5625,35.0,13.75
6.5,8.11767578125,1.708984375,-7.080078125,0.3513290810876797,-0.4004028443250831,-0.8677022614215522,-24.4375,31.5,13.375
7.0,0.18310546875,-1.3427734375,-1.52587890625,0.3774529251991332,-0.4184698019348735,-0.8542741172521134,-22.0,31.875,14.1875
7.5,10.55908203125,-11.77978515625,12.02392578125,0.1314737388225959,-0.4985503707998901,-0.8382824182866909,-15.375,36.5625,11.0625
8.0,3.2958984375,-8.23974609375,10.009765625,0.1756645405438398,-0.5684987945188757,-0.8288827173680837,-15.75,36.9375,10.25
8.5,5.4931640625,3.41796875,2.25830078125,0.1799371318704794,-0.5379802850428785,-0.836451307718131,-12.25,39.25,8.3125
9.0,3.7841796875,-6.53076171875,2.44140625,0.1462446974089785,-0.6004821924497208,-0.7920163579210792,-11.875,38.875,10.625
9.5,-7.87353515625,1.708984375,-14.22119140625,0.1118198187200537,-0.6538285470137638,-0.7571031830805384,-13.6875,36.125,13.75
10.0,-15.93017578125,-2.685546875,-21.8505859375,0.260383922849208,-0.4594866786706137,-0.8718527787102878,-19.5625,35.75,13.75
10.5,0.18310546875,-8.6669921875,4.45556640625,0.2913907284768212,-0.4470351268044069,-0.858546708578753,-16.4375,35.75,14.1875
11.0,-3.23486328125,18.5546875,-8.85009765625,0.2006897183141575,-0.4582659382915738,-0.8954130680257576,-16.75,36.125,11.0625
11.5,15.07568359375,-9.46044921875,11.1083984375,0.1201208532975249,-0.5285805841242713,-0.8344981231116673,-12.25,38.875,7.9375
12.0,0.54931640625,4.0283203125,6.103515625,0.0413830988494521,-0.6179387798699911,-0.8138676107058931,-14.3125,39.25,11.0625
12.5,-14.16015625,15.80810546875,-28.86962890625,0.303842280343028,-0.5053865169225135,-0.8293710135196997,-17.5,35.75,12.1875
13.0,1.52587890625,3.84521484375,1.0986328125,0.3170262764366588,-0.4820703756828516,-0.8603778191473128,-18.5625,35.0,11.75
13.5,-1.52587890625,-1.8310546875,1.40380859375,0.2832117679372539,-0.456556901760918,-0.8635517441328165,-16.4375,34.1875,15.75
14.0,-0.8544921875,-0.48828125,0.79345703125,0.2909024323252052,-0.4544816431165502,-0.8656270027771844,-19.5625,35.4375,13.375
14.5,-0.6103515625,0.48828125,1.708984375,0.282723471785638,-0.4520401623584704,-0.8794213690603351,-15.375,35.0,14.5625
15.0,0.1220703125,-0.06103515625,0.48828125,0.2783288064210943,-0.4537491988891262,-0.8646504104739524,-16.75,35.75,12.9375
15.5,-0.244140625,-0.91552734375,1.708984375,0.2734458449049348,-0.4489883114108707,-0.8611102633747367,-17.5,35.0,14.9375
16.0,2.86865234375,2.3193359375,1.77001953125,0.2766197698904385,-0.4392223883785516,-0.8753929258095035,-20.25,34.625,15.375
16.5,-11.65771484375,-0.6103515625,4.08935546875,0.3027436140018921,-0.3658558915982543,-0.9331339457380902,-20.625,34.625,18.875
17.0,24.47509765625,14.95361328125,6.7138671875,0.4029663991210669,-0.4112674336985382,-0.8922391430402539,-15.0625,36.5625,16.5625
17.5,-32.958984375,63.5986328125,13.427734375,0.129886776329844,-0.4824365977965636,-1.1072115237891782,-11.5625,37.3125,16.9375
18.0,-12.75634765625,7.26318359375,-6.103515625,0.0740989410077211,-0.4471572008423108,-0.8937040314951018,-19.5625,33.4375,17.3125
18.5,18.73779296875,8.60595703125,3.84521484375,0.2838221381267738,-0.4213995788445692,-0.8646504104739524,-18.1875,35.75,12.9375
19.0,0.18310546875,-12.20703125,3.60107421875,0.2486648152104251,-0.5177159947508164,-0.8231452375865963,-15.75,38.125,11.4375
19.5,20.3857421875,-15.0146484375,17.51708984375,0.1602832117679372,-0.5515305032502212,-0.8452406384472182,-11.5625,39.6875,10.625
20.0,0.42724609375,2.38037109375,2.44140625,0.0919217505417035,-0.6162297433393353,-0.7898190252388073,-15.75,36.5625,14.5625
20.5,-8.97216796875,12.39013671875,-29.296875,0.2138737144077883,-0.5022125919370098,-0.7647938474684897,-19.1875,33.8125,15.75
21.0,3.90625,0.67138671875,2.01416015625,0.2906582842493972,-0.3573107089449751,-0.9306924649800103,-17.125,34.625,13.375
21.5,12.5732421875,-12.26806640625,10.19287109375,0.162724692526017,-0.4525284585100864,-0.8393810846278268,-14.3125,38.125,11.0625
22.0,6.2255859375,-7.080078125,-5.06591796875,0.1137730033265175,-0.5783867915890988,-0.815698721274453,-17.125,35.75,11.75
22.5,-9.8876953125,20.44677734375,-21.78955078125,0.1660206915494247,-0.5195471053193762,-0.750389110995819,-23.375,33.8125,12.9375
23.0,-3.5400390625,-3.47900390625,-13.36669921875,0.3570665608691671,-0.4067506942960905,-0.8669698171941282,-19.9375,36.125,13.375
23.5,4.21142578125,2.9296875,2.62451171875,0.347911008026368,-0.4378795739616077,-0.8423108615375225,-20.25,35.75,14.9375
24.0,-0.1220703125,0.6103515625,-0.79345703125,0.3330179754020813,-0.4499649037141026,-0.838038270210883,-23.375,35.4375,12.1875
24.5,5.37109375,-1.3427734375,-8.85009765625,0.3442487868892483,-0.4608294930875576,-0.8402356028931547,-19.9375,34.1875,14.1875
25.0,-5.43212890625,0.79345703125,5.43212890625,0.3411969359416486,-0.4575334940641499,-0.8387707144383069,-21.3125,35.0,14.1875
25.5,0.9765625,1.0986328125,-1.46484375,0.358775597399823,-0.4310434278389843,-0.8393810846278268,-20.25,34.625,16.9375
26.0,0.3662109375,-0.79345703125,-0.6103515625,0.3402203436384167,-0.4395886104922635,-0.8452406384472182,-21.625,35.0,16.125
26.5,-0.1220703125,0.30517578125,-0.244140625,0.3507187108981597,-0.4493545335245826,-0.8421887874996186,-21.0,34.625,11.75
27.0,-2.44140625,1.46484375,2.8076171875,0.3504745628223517,-0.4415417950987274,-0.8451185644093142,-20.25,34.1875,14.1875
27.5,1.77001953125,-0.06103515625,-2.25830078125,0.3607287820062868,-0.4351939451277199,-0.8387707144383069,-21.625,33.4375,12.9375
28.0,0.06103515625,0.06103515625,0.67138671875,0.3481551561021759,-0.4497207556382946,-0.8353526413769952,-21.625,33.0,11.0625
28.5,-1.5869140625,0.54931640625,1.64794921875,0.3596301156651509,-0.4439832758568071,-0.8395031586657308,-22.0,35.4375,14.1875
29.0,0.30517578125,0.18310546875,-0.18310546875,0.3634144108401745,-0.4417859431745353,-0.8386486404004029,-21.0,35.4375,10.25
29.5,1.03759765625,-0.48828125,-2.197265625,0.3618274483474227,-0.4366588335825678,-0.8386486404004029,-23.375,34.1875,10.625
30.0,0.06103515625,0.244140625,0.48828125,0.358531449324015,-0.4445936460463271,-0.837061677907651,-22.375,35.0,12.1875
30.5,-0.06103515625,0.1220703125,-0.244140625,0.3619495223853267,-0.4397106845301675,-0.8387707144383069,-21.625,33.8125,11.4375
31.0,-0.732421875,0.67138671875,0.30517578125,0.3665883358256783,-0.4203009125034333,-0.8443861201818903,-22.0,32.6875,10.625
31.5,-0.06103515625,-0.30517578125,-0.54931640625,0.3634144108401745,-0.4327524643696402,-0.8404797509689627,-21.625,33.0,12.5625
32.0,-0.1220703125,-0.18310546875,-0.1220703125,0.358409375286111,-0.4356822412793359,-0.8418225653859066,-21.625,36.125,13.375
32.5,0.42724609375,-0.3662109375,0.30517578125,0.3556016724143193,-0.4369029816583758,-0.8437757499923704,-23.0625,34.1875,14.5625
33.0,0.3662109375,0.18310546875,-0.18310546875,0.3542588579973754,-0.4378795739616077,-0.8421887874996186,-16.125,36.125,14.1875
33.5,5.9814453125,-15.2587890625,9.82666015625,0.3442487868892483,-0.4832911160618915,-0.8431653798028504,-12.625,39.25,8.6875
34.0,21.91162109375,-5.67626953125,16.78466796875,0.0745872371593371,-0.564470351268044,-0.7958006530961028,-11.25,40.0625,5.5625
34.5,1.40380859375,-0.48828125,2.25830078125,0.0219733268227179,-0.6465041047395246,-0.7540513321329386,-21.3125,33.8125,15.75
35.0,-33.203125,21.728515625,-20.5078125,0.292977690969573,-0.4868312631611072,-0.8207037568285165,-23.375,33.4375,14.5625
35.5,-0.54931640625,1.40380859375,-5.37109375,0.3060396130252998,-0.4261604663228248,-0.8075197607348857,-18.1875,38.5,9.5
36.0,24.84130859375,-17.51708984375,30.09033203125,0.3204443494979705,-0.4460585345011749,-0.8236335337382122,-14.6875,36.9375,17.6875
36.5,6.28662109375,18.61572265625,13.61083984375,0.1698049867244483,-0.5279702139347514,-0.8331553086947233,-16.75,37.3125,11.75
37.0,-0.732421875,-0.30517578125,-3.60107421875,0.2207098605304117,-0.521744438001648,-0.8532975249488814,-16.75,35.75,12.5625
37.5,-5.55419921875,19.34814453125,-19.10400390625,0.1672414319284646,-0.4759666737876522,-0.8747825556199835,-16.75,37.3125,19.25
38.0,4.39453125,3.41796875,7.9345703125,0.2127750480666524,-0.3923459578234199,-0.9029816583758048,-13.6875,37.3125,13.375
38.5,2.86865234375,4.0283203125,19.775390625,0.1441694387646107,-0.5201574755088961,-0.8542741172521134,-12.25,36.9375,15.75
39.0,-0.18310546875,-1.46484375,0.67138671875,0.1608935819574572,-0.4774315622425,-0.869045075838496,-15.375,36.5625,17.3125
39.5,-1.15966796875,-0.244140625,-0.06103515625,0.1533249916074099,-0.4810937833796197,-0.8703878902554399,-13.6875,36.9375,18.0625
40.0,-1.0986328125,0.67138671875,1.46484375,0.1617481002227851,-0.4793847468489638,-0.8733176671651357,-13.9375,37.75,12.9375
40.5,9.82666015625,4.7607421875,-3.0517578125,0.1356242561113315,-0.4791405987731559,-0.8764915921506393,-12.625,37.3125,13.375
41.0,-3.7841796875,-1.220703125,5.31005859375,0.1677297280800805,-0.5068514053773614,-0.869533371990112,-12.25,37.75,12.5625
41.5,-4.33349609375,-2.9296875,-2.86865234375,0.1530808435316019,-0.4909817804498428,-0.8517105624561296,-14.3125,36.5625,11.4375
42.0,0.244140625,-0.9765625,-1.0986328125,0.1661427655873287,-0.5135654774620807,-0.8492690816980498,-13.6875,37.75,14.5625
42.5,0.0,0.244140625,0.3662109375,0.1650440992461928,-0.5042878505813776,-0.8617206335642568,-12.9375,36.125,15.375
43.0,-2.25830078125,-0.42724609375,2.86865234375,0.1575975829340495,-0.4929349650563066,-0.8670918912320322,-13.6875,36.5625,15.375
43.5,0.1220703125,0.18310546875,-0.244140625,0.1584521011993774,-0.4908597064119388,-0.8683126316110721,-11.5625,35.0,11.75
44.0,-0.244140625,0.06103515625,-0.06103515625,0.1574755088961455,-0.4940336313974425,-0.8714865565965758,-12.25,39.25,12.9375
44.5,0.244140625,-0.1220703125,-0.30517578125,0.1562547685171056,-0.4897610400708029,-0.8679464094973601,-12.25,36.5625,14.1875
45.0,0.06103515625,0.06103515625,-0.18310546875,0.1583300271614734,-0.4882961516159551,-0.8691671498764,-9.8125,40.0625,10.625
45.5,12.02392578125,4.5166015625,-19.8974609375,0.2119205298013245,-0.4769432660908841,-0.8506118961149938,-16.125,38.125,13.75
46.0,-1.64794921875,-6.28662109375,-4.8828125,-0.0338145084994048,-0.6430860316782129,-0.7547837763603625,-21.3125,36.9375,12.9375
46.5,-37.65869140625,41.9921875,-34.5458984375,0.1818903164769432,-0.4511856440931425,-0.8402356028931547,-13.9375,38.5,13.75
47.0,6.77490234375,5.4931640625,6.7138671875,0.3549913022247993,-0.4770653401287881,-0.8286385692922758,-12.625,38.5,11.0625
47.5,11.23046875,-40.8935546875,43.45703125,0.118655964842677,-0.5345622119815668,-0.8191167943357647,-13.3125,38.875,14.5625
48.0,-7.75146484375,22.15576171875,-4.7607421875,0.1706595049897763,-0.6124454481643117,-0.8482924893948179,-14.3125,37.3125,10.25
48.5,9.46044921875,-10.009765625,9.09423828125,0.0780053102206488,-0.5293130283516954,-0.7868892483291116,-17.8125,35.4375,14.5625
49.0,-17.15087890625,8.4228515625,-19.04296875,0.1528366954557939,-0.5424970244453261,-0.8391369365520188,-16.75,35.0,13.375
49.5,4.39453125,-1.28173828125,-12.0849609375,0.1130405590990936,-0.4810937833796197,-0.8854029969176306,-17.125,35.4375,12.9375
50.0,8.056640625,-6.34765625,-0.9765625,0.217535935544908,-0.4806054872280038,-0.836939603869747,-16.4375,35.0,14.1875
50.5,0.0,14.22119140625,0.48828125,0.2517166661580248,-0.4699850459303568,-0.8409680471205786,-15.75,35.4375,13.375
51.0,-0.06103515625,-1.03759765625,-0.18310546875,0.2747886593218787,-0.4294564653462325,-0.8694112979522081,-17.125,36.5625,12.9375
51.5,0.54931640625,-0.18310546875,-1.3427734375,0.2775963621936704,-0.4593646046327097,-0.8612323374126407,-16.75,35.4375,16.9375
52.0,0.1220703125,-22.76611328125,2.685546875,0.3237403485213782,-0.4091921750541704,-0.8939481795709098,-18.875,32.25,16.9375
52.5,-3.72314453125,0.3662109375,-19.95849609375,0.2222968230231635,-0.4266487624744407,-0.870143742179632,-15.0625,35.75,17.3125
53.0,0.30517578125,3.47900390625,-7.6904296875,0.3394878994109928,-0.4141972106082339,-0.8838160344248787,-11.875,39.25,15.375
53.5,10.07080078125,-22.0947265625,10.07080078125,0.206305124057741,-0.4441053498947111,-0.8951689199499496,-14.3125,38.5,14.5625
54.0,-2.38037109375,23.4375,5.9814453125,0.0518814661091952,-0.5096591082491531,-0.8388927884762108,-12.25,38.125,15.375
54.5,-0.3662109375,-0.732421875,-2.0751953125,0.1893368327890865,-0.4664448988311411,-0.8845484786523026,-13.9375,37.3125,14.1875
55.0,-0.91552734375,-0.67138671875,-0.3662109375,0.1641895809808649,-0.4850001525925473,-0.8738059633167516,-12.25,36.125,17.6875
55.5,-0.244140625,-0.06103515625,-0.91552734375,0.1647999511703848,-0.4758445997497482,-0.879909665211951,-13.6875,38.125,18.5
56.0,0.1220703125,0.0,-0.30517578125,0.162358470412305,-0.4757225257118442,-0.8747825556199835,-12.9375,35.75,13.375
56.5,0.30517578125,0.0,-0.30517578125,0.162968840601825,-0.4813379314554277,-0.8706320383312479,-13.3125,37.3125,17.6875
57.0,-0.30517578125,-0.06103515625,-0.42724609375,0.1612598040711691,-0.4742576372569964,-0.8795434430982391,-12.25,37.75,11.75
57.5,0.3662109375,0.9765625,1.220703125,0.1617481002227851,-0.467055269020661,-0.8728293710135197,-13.3125,36.5625,17.6875
58.0,-0.18310546875,0.06103515625,-0.30517578125,0.1607715079195532,-0.4748680074465163,-0.880031739249855,-14.6875,37.3125,16.5625
58.5,0.06103515625,0.1220703125,-0.6103515625,0.162724692526017,-0.4754783776360362,-0.8779564806054873,-12.625,36.9375,13.75
59.0,-0.06103515625,-0.1220703125,-0.244140625,0.1634571367534409,-0.4745017853328043,-0.880031739249855,-13.3125,35.4375,14.1875
59.5,0.30517578125,0.06103515625,-0.1220703125,0.1607715079195532,-0.4718161564989166,-0.8761253700369274,-11.25,36.5625,14.5625
60.0,0.48828125,0.06103515625,0.06103515625,0.1611377300332651,-0.4791405987731559,-0.8738059633167516,-13.3125,38.875,14.9375
60.5,0.0,-0.06103515625,-0.18310546875,0.1644337290566728,-0.4763328959013642,-0.8725852229377117,-12.9375,37.3125,13.375
61.0,-0.18310546875,0.06103515625,-0.1220703125,0.1608935819574572,-0.4751121555223243,-0.8764915921506393,-13.6875,36.125,14.5625
61.5,0.18310546875,0.0,-0.1220703125,0.1605273598437452,-0.4734031189916684,-0.8750267036957915,-13.6875,37.3125,13.375
62.0,0.06103515625,0.1220703125,-0.30517578125,0.1650440992461928,-0.4736472670674764,-0.8766136661885433,-12.625,37.75,14.9375
62.5,0.42724609375,0.1220703125,-0.3662109375,0.162236396374401,-0.4749900814844203,-0.8723410748619037,-13.3125,38.5,13.75
63.0,0.244140625,0.0,0.06103515625,0.1615039521469771,-0.4745017853328043,-0.8762474440748313,-12.9375,36.5625,13.375
63.5,0.18310546875,0.0,-0.1220703125,0.1584521011993774,-0.4818262276070437,-0.870143742179632,-13.6875,37.75,16.125
64.0,0.1220703125,0.0,-0.18310546875,0.1601611377300332,-0.4765770439771721,-0.8720969267860957,-12.625,36.9375,15.75
64.5,-0.1220703125,-0.06103515625,-0.42724609375,0.1641895809808649,-0.4732810449537644,-0.8789330729087191,-11.5625,38.5,14.1875
65.0,0.1220703125,0.18310546875,-0.6103515625,0.1650440992461928,-0.4776757103183081,-0.8758812219611194,-11.5625,37.3125,11.75
65.5,0.0,0.06103515625,-0.3662109375,0.1632129886776329,-0.4747459334086123,-0.8794213690603351,-14.3125,36.9375,14.1875
66.0,0.54931640625,0.0,-0.1220703125,0.1640675069429609,-0.4791405987731559,-0.8753929258095035,-15.375,36.5625,14.1875
66.5,0.3662109375,0.1220703125,-0.18310546875,0.1635792107913449,-0.477797784356212,-0.8735618152409437,-12.9375,37.3125,14.5625
67.0,-0.30517578125,-0.06103515625,-0.6103515625,0.162724692526017,-0.4749900814844203,-0.8762474440748313,-12.25,38.875,13.75
67.5,-0.244140625,-0.18310546875,-0.732421875,0.162480544450209,-0.4766991180150761,-0.8773461104159673,-13.6875,37.3125,13.75
68.0,-0.1220703125,-0.244140625,0.0,0.162236396374401,-0.4741355632190924,-0.8780785546433912,-11.875,37.75,20.0625
68.5,0.1220703125,0.30517578125,-0.42724609375,0.1596728415784173,-0.4746238593707083,-0.8791772209845271,-11.875,36.5625,16.5625
69.0,0.1220703125,0.1220703125,-0.18310546875,0.1586962492751853,-0.4730368968779564,-0.8795434430982391,-12.9375,37.3125,13.375
69.5,0.54931640625,0.30517578125,-0.18310546875,0.1579638050477614,-0.4736472670674764,-0.8730735190893277,-11.25,38.125,14.9375
70.0,0.42724609375,0.1220703125,0.18310546875,0.1580858790856654,-0.4752342295602282,-0.8761253700369274,-12.625,38.125,13.375
70.5,0.30517578125,0.1220703125,0.0,0.1572313608203375,-0.4715720084231086,-0.879665517136143,-12.9375,38.5,13.75
71.0,0.1220703125,0.244140625,0.18310546875,0.1588183233130894,-0.4765770439771721,-0.8780785546433912,-11.875,38.5,17.3125
71.5,0.48828125,0.1220703125,0.1220703125,0.1557664723654896,-0.4743797112949003,-0.8741721854304636,-13.3125,36.9375,11.4375
72.0,0.30517578125,0.42724609375,-0.42724609375,0.1639454329050569,-0.4741355632190924,-0.8789330729087191,-12.25,36.9375,12.1875
72.5,0.244140625,0.06103515625,-0.30517578125,0.1596728415784173,-0.4699850459303568,-0.8778344065675833,-13.3125,38.875,14.9375
73.0,0.6103515625,0.42724609375,-0.30517578125,0.1643116550187688,-0.4788964506973479,-0.8724631488998077,-12.625,36.9375,14.5625
73.5,0.30517578125,0.06103515625,-0.30517578125,0.1604052858058412,-0.4765770439771721,-0.8755149998474074,-11.25,35.75,15.375
74.0,-0.30517578125,-0.06103515625,-0.67138671875,0.1564989165929136,-0.4771874141666921,-0.8761253700369274,-12.25,36.5625,18.0625
74.5,-0.30517578125,-0.244140625,-0.06103515625,0.1590624713888973,-0.4746238593707083,-0.880397961363567,-12.9375,36.5625,14.5625
75.0,0.06103515625,-0.06103515625,-0.30517578125,0.1583300271614734,-0.4709616382335886,-0.879909665211951,-12.625,38.125,12.9375
75.5,0.18310546875,-0.06103515625,-0.06103515625,0.1597949156163213,-0.4697408978545487,-0.8772240363780633,-13.6875,38.125,13.75
76.0,0.79345703125,0.18310546875,-0.06103515625,0.1616260261848811,-0.4754783776360362,-0.8758812219611194,-13.3125,36.9375,13.375
76.5,0.54931640625,0.6103515625,-0.244140625,0.162724692526017,-0.4796288949247719,-0.8779564806054873,-13.3125,38.5,14.9375
77.0,-0.3662109375,-0.06103515625,-0.3662109375,0.1595507675405133,-0.4751121555223243,-0.8786889248329112,-13.3125,36.9375,16.9375
77.5,0.1220703125,0.244140625,-0.244140625,0.162480544450209,-0.4774315622425,-0.8757591479232154,-11.875,36.9375,15.375
78.0,-0.18310546875,-0.3662109375,-0.67138671875,0.1596728415784173,-0.4749900814844203,-0.8786889248329112,-12.9375,37.3125,14.1875
78.5,0.244140625,0.1220703125,-0.06103515625,0.1607715079195532,-0.4741355632190924,-0.8768578142643513,-12.25,38.125,17.3125
79.0,0.3662109375,-0.06103515625,-0.1220703125,0.1652882473220008,-0.478408154545732,-0.8767357402264473,-13.3125,37.3125,15.375
79.5,0.42724609375,0.1220703125,-0.18310546875,0.1608935819574572,-0.4769432660908841,-0.8774681844538713,-12.25,35.75,15.375
80.0,0.1220703125,0.244140625,-0.244140625,0.1589403973509933,-0.4831690420239875,-0.8728293710135197,-12.625,35.75,13.75
80.5,-0.1220703125,0.06103515625,-0.54931640625,0.1572313608203375,-0.477919858394116,-0.8723410748619037,-11.875,38.125,16.125
81.0,-0.244140625,0.1220703125,-0.3662109375,0.1591845454268013,-0.4803613391521958,-0.8756370738853114,-13.3125,36.5625,13.75
81.5,-0.06103515625,-0.30517578125,-0.18310546875,0.1584521011993774,-0.4751121555223243,-0.8780785546433912,-12.25,37.3125,14.9375
82.0,0.244140625,0.06103515625,0.0,0.1599169896542253,-0.4748680074465163,-0.8762474440748313,-13.3125,38.125,16.9375
82.5,0.06103515625,0.06103515625,-0.30517578125,0.1594286935026093,-0.4771874141666921,-0.8746604815820795,-13.6875,36.125,16.125
83.0,0.42724609375,0.18310546875,0.06103515625,0.1597949156163213,-0.4764549699392681,-0.8753929258095035,-11.875,36.9375,12.9375
83.5,0.06103515625,-0.06103515625,-0.244140625,0.1606494338816492,-0.478286080507828,-0.8775902584917753,-12.9375,38.5,16.5625
84.0,-0.244140625,-0.06103515625,-0.18310546875,0.1566209906308175,-0.4765770439771721,-0.8762474440748313,-14.6875,36.5625,14.1875
84.5,0.06103515625,-0.06103515625,0.06103515625,0.1608935819574572,-0.4731589709158604,-0.8734397412030397,-13.6875,36.5625,14.5625
85.0,-0.30517578125,-0.244140625,-0.30517578125,0.1567430646687215,-0.47804193243202,-0.8795434430982391,-12.25,39.6875,11.4375
85.5,0.54931640625,0.42724609375,-0.3662109375,0.1611377300332651,-0.477309488204596,-0.8760032959990234,-12.25,38.5,13.375
86.0,0.54931640625,0.3662109375,0.06103515625,0.1606494338816492,-0.4776757103183081,-0.8789330729087191,-21.3125,35.4375,11.75
86.5,18.49365234375,-17.333984375,1.15966796875,0.1678518021179845,-0.4897610400708029,-0.8709982604449599,-15.375,38.5,14.5625
87.0,2.25830078125,-1.64794921875,-0.1220703125,0.0872829371013519,-0.5970641193884091,-0.7948240607928708,-16.125,36.9375,12.5625
87.5,-24.2919921875,12.939453125,-20.20263671875,0.3354594561601611,-0.456190679647206,-0.8921170690023499,-12.9375,37.75,13.375
88.0,7.26318359375,-4.94384765625,12.87841796875,0.3502304147465437,-0.4143192846461379,-0.8539078951384015,-14.3125,37.75,14.9375
88.5,-4.5166015625,26.4892578125,1.0986328125,0.0875270851771599,-0.5257728812524797,-0.8314462721640675,-16.125,34.625,16.5625
89.0,-1.8310546875,-2.99072265625,-2.8076171875,0.1870174260689108,-0.4724265266884365,-0.8729514450514236,-11.875,38.5,14.5625
89.5,-2.9296875,-2.25830078125,-0.30517578125,0.1783501693777276,-0.4904934842982268,-0.8647724845118564,-14.3125,37.3125,10.625
90.0,-2.50244140625,6.4697265625,-22.0947265625,0.238288521988586,-0.4032105471968749,-0.8954130680257576,-13.3125,36.5625,12.9375
90.5,11.53564453125,-8.72802734375,20.81298828125,0.0788598284859767,-0.4901272621845149,-0.8393810846278268,-12.25,37.3125,14.9375
91.0,-6.7138671875,-2.8076171875,-1.708984375,0.1383098849452192,-0.4195684682760094,-0.8489028595843379,-12.9375,40.0625,11.75
91.5,-0.79345703125,-0.6103515625,-0.42724609375,0.1539353617969298,-0.5061189611499375,-0.8580584124271371,-13.6875,36.9375,16.5625
92.0,0.0,-0.1220703125,-0.732421875,0.1495406964323862,-0.5014801477095858,-0.8612323374126407,-11.5625,36.125,16.9375
92.5,-0.30517578125,-0.3662109375,0.30517578125,0.1586962492751853,-0.5014801477095858,-0.858912930692465,-11.25,36.125,11.75
93.0,-0.42724609375,-0.18310546875,-0.18310546875,0.151982177190466,-0.4984282967619861,-0.8619647816400647,-13.6875,37.3125,12.9375
93.5,-0.30517578125,-0.06103515625,-0.3662109375,0.1579638050477614,-0.4951322977385785,-0.8674581133457442,-15.375,36.9375,13.75
94.0,0.1220703125,0.18310546875,0.18310546875,0.151982177190466,-0.4913480025635548,-0.8681905575731681,-13.3125,36.5625,12.9375
94.5,-0.06103515625,-0.30517578125,-0.30517578125,0.1507614368114261,-0.4962309640797143,-0.8629413739432966,-14.6875,35.0,14.9375
95.0,1.52587890625,-0.18310546875,0.42724609375,0.195318460646382,-0.5390789513840144,-0.8667256691183203,-15.375,35.75,17.3125
95.5,-2.44140625,2.8076171875,5.67626953125,0.2535477767265847,-0.4292123172704245,-0.9055452131717888,-15.375,35.4375,14.9375
96.0,0.48828125,-0.3662109375,0.1220703125,0.2144840845973082,-0.4538712729270302,-0.8791772209845271,-13.6875,35.0,13.75
96.5,-0.1220703125,-1.52587890625,-1.40380859375,0.2085024567400128,-0.4603411969359416,-0.8733176671651357,-15.375,36.5625,16.125
97.0,-0.1220703125,0.9765625,-3.35693359375,0.2230292672505874,-0.455824457533494,-0.8739280373546556,-13.6875,37.3125,16.9375
97.5,-0.732421875,-0.8544921875,-0.79345703125,0.2088686788537248,-0.4439832758568071,-0.8816187017426069,-15.375,36.9375,18.0625
98.0,0.06103515625,-0.1220703125,-0.1220703125,0.2116763817255165,-0.4481337931455427,-0.881374553666799,-15.375,36.125,15.375
98.5,0.48828125,0.3662109375,-0.79345703125,0.2077700125125889,-0.4464247566148869,-0.880153813287759,-14.6875,35.4375,12.9375
99.0,0.30517578125,0.0,-0.54931640625,0.2087466048158208,-0.4432508316293832,-0.880153813287759,-14.6875,38.125,15.375
99.5,0.06103515625,-0.06103515625,-0.244140625,0.2126529740287484,-0.4474013489181188,-0.881374553666799,-13.3125,37.3125,13.75
100.0,0.244140625,0.3662109375,-0.18310546875,0.2111880855739005,-0.4500869777520065,-0.8816187017426069,-15.0625,36.9375,16.125
100.5,0.0,0.1220703125,-0.3662109375,0.2099673451948606,-0.4437391277809991,-0.8854029969176306,-14.6875,36.125,16.125
101.0,-0.244140625,-0.42724609375,0.06103515625,0.2080141605883968,-0.4448377941221351,-0.8845484786523026,-16.125,35.0,13.75
101.5,0.18310546875,0.0,-0.1220703125,0.2102114932706686,-0.4421521652882473,-0.8849147007660146,-16.125,35.4375,16.5625
102.0,0.42724609375,0.30517578125,-0.06103515625,0.2133854182561723,-0.4430066835535752,-0.8825952940458388,-14.6875,35.0,12.5625
102.5,0.6103515625,-0.06103515625,0.244140625,0.2138737144077883,-0.4432508316293832,-0.8863795892208625,-13.6875,36.5625,13.375
103.0,0.0,-0.732421875,0.8544921875,0.2033753471480452,-0.4511856440931425,-0.8794213690603351,-10.875,36.5625,17.3125
103.5,0.67138671875,0.91552734375,-0.42724609375,0.2138737144077883,-0.4592425305948057,-0.8766136661885433,-12.625,35.4375,13.375
104.0,0.244140625,0.30517578125,0.18310546875,0.2115543076876125,-0.4620502334665975,-0.879787591174047,-13.3125,37.3125,16.125
104.5,-1.52587890625,8.23974609375,12.02392578125,0.2221747489852595,-0.5053865169225135,-0.8573259681997131,-16.125,35.75,14.5625
105.0,0.48828125,-1.0986328125,0.48828125,0.1680959501937925,-0.423596911526841,-0.8923612170781579,-15.0625,33.4375,13.75
105.5,0.244140625,-0.91552734375,-3.662109375,0.2182683797723319,-0.4411755729850154,-0.8934598834192938,-13.9375,36.9375,14.1875
106.0,-0.3662109375,-13.00048828125,-16.29638671875,0.1228064821314127,-0.4649800103762932,-0.86855677968688,-20.625,33.4375,15.375
106.5,-0.79345703125,-0.30517578125,-1.64794921875,0.1892147587511826,-0.4508194219794305,-0.89150669881283,-16.4375,36.125,11.4375
107.0,-2.8076171875,1.8310546875,-7.99560546875,0.1976378673665578,-0.4094363231299783,-0.9151890621662038,-11.875,38.5,14.9375
107.5,3.11279296875,-12.5732421875,5.9814453125,0.0915555284279915,-0.5133213293862727,-0.8679464094973601,-12.9375,35.4375,14.9375
108.0,-28.4423828125,16.29638671875,-23.8037109375,0.2358470412305063,-0.3761101107821894,-0.9001739555040131,-11.25,36.5625,15.75
108.5,-4.45556640625,-4.39453125,-4.39453125,0.3381450849940489,-0.4144413586840418,-0.8492690816980498,-13.3125,38.125,15.75
109.0,-5.7373046875,-17.63916015625,9.765625,0.0626239814447462,-0.4898831141087069,-0.8426770836512345,-12.25,37.3125,14.1875
109.5,-10.986328125,11.8408203125,11.8408203125,0.2114322336497085,-0.4908597064119388,-0.8935819574571978,-13.6875,37.75,14.5625
110.0,0.48828125,-0.42724609375,1.0986328125,0.1543015839106418,-0.4694967497787408,-0.8806421094393749,-11.875,36.5625,14.1875
110.5,0.18310546875,0.6103515625,-2.86865234375,0.1430707724234748,-0.4751121555223243,-0.8773461104159673,-12.25,36.9375,17.3125
111.0,0.30517578125,0.06103515625,0.18310546875,0.1562547685171056,-0.4704733420819727,-0.880031739249855,-12.25,36.5625,13.375
111.5,-0.244140625,-0.30517578125,-0.06103515625,0.1550340281380657,-0.4699850459303568,-0.8785668507950072,-12.25,35.4375,14.9375
112.0,0.06103515625,0.18310546875,0.244140625,0.1563768425550096,-0.4619281594286935,-0.8785668507950072,-12.9375,38.875,12.9375
112.5,0.06103515625,0.06103515625,-0.3662109375,0.1585741752372814,-0.4658345286416211,-0.881008331553087,-13.6875,36.5625,16.9375
113.0,-0.18310546875,-0.06103515625,-0.244140625,0.1562547685171056,-0.4644917142246773,-0.8849147007660146,-11.875,36.9375,14.9375
113.5,-0.06103515625,0.0,-0.18310546875,0.1550340281380657,-0.4605853450117496,-0.8872341074861904,-11.875,36.5625,14.1875
114.0,-0.06103515625,0.06103515625,0.06103515625,0.151860103152562,-0.4549699392681661,-0.8843043305764946,-14.3125,33.8125,16.125
114.5,0.42724609375,0.30517578125,-0.06103515625,0.1589403973509933,-0.4608294930875576,-0.8877224036378063,-12.25,36.9375,15.375
115.0,0.1220703125,0.0,-0.06103515625,0.1530808435316019,-0.4600970488601337,-0.8874782555619983,-12.625,37.3125,16.125
115.5,0.18310546875,0.18310546875,-0.79345703125,0.1562547685171056,-0.4618060853907895,-0.8836939603869747,-13.3125,36.125,16.125
116.0,0.1220703125,0.18310546875,-0.06103515625,0.1560106204412976,-0.4578997161778618,-0.8841822565385906,-10.5,37.3125,15.375
116.5,0.1220703125,-0.06103515625,-0.30517578125,0.151982177190466,-0.455946531571398,-0.8900418103579821,-13.6875,35.0,14.1875
117.0,0.48828125,0.06103515625,-0.244140625,0.1524704733420819,-0.4548478652302621,-0.8833277382732627,-17.8125,34.625,14.1875
117.5,0.18310546875,0.1220703125,-0.244140625,0.1538132877590258,-0.4581438642536699,-0.8886989959410383,-18.875,35.75,11.75
118.0,0.6103515625,0.42724609375,0.06103515625,0.1534470656453138,-0.4581438642536699,-0.8869899594103824,-13.9375,38.125,12.1875
118.5,0.48828125,0.30517578125,-0.1220703125,0.1561326944792016,-0.4620502334665975,-0.8868678853724784,-19.5625,35.4375,14.5625
119.0,-23.0712890625,5.126953125,-26.85546875,0.0932645649586474,-0.3875850703451643,-0.8567155980101931,-21.3125,31.875,15.375
119.5,4.94384765625,-5.37109375,4.8828125,0.2625812555314798,-0.3818475905636769,-0.8656270027771844,-22.375,33.8125,14.1875
120.0,22.5830078125,-18.49365234375,20.6298828125,0.2395092623676259,-0.5844904934842983,-0.8198492385631886,-22.0,32.6875,14.9375
120.5,-8.11767578125,7.50732421875,-6.53076171875,0.1364787743766594,-0.597796563615833,-0.7964110232856227,-11.875,38.5,15.375
121.0,-31.06689453125,-2.685546875,-28.25927734375,0.2915128025147251,-0.3178807947019867,-0.9276406140324106,-11.5625,39.25,8.3125
121.5,-4.0283203125,6.28662109375,-8.1787109375,0.2906582842493972,-0.379528183843501,-0.8884548478652302,-12.9375,39.25,12.5625
122.0,3.47900390625,0.18310546875,-3.23486328125,0.3836787011322367,-0.3418073061311685,-0.8763695181127353,-16.75,35.0,15.75
122.5,9.21630859375,-7.2021484375,7.8125,0.4115115817743461,-0.347422711874752,-0.8752708517715995,-12.625,37.75,13.375
123.0,15.80810546875,-1.77001953125,8.60595703125,0.0024414807580797,-0.5188146610919523,-0.7942136906033509,-12.25,38.875,14.9375
123.5,6.40869140625,-0.8544921875,4.69970703125,-0.0275887325663014,-0.5936460463270974,-0.815698721274453,-11.25,37.75,14.9375
124.0,-19.34814453125,29.11376953125,-17.76123046875,0.0712912381359294,-0.5732596819971313,-0.7406231879634999,-12.25,35.0,16.5625
124.5,-4.94384765625,11.29150390625,-11.41357421875,0.217169713431196,-0.4000366222113712,-0.9157994323557236,-11.25,37.3125,12.5625
125.0,-10.986328125,24.84130859375,-1.708984375,0.1638233588671529,-0.5193029572435682,-0.8681905575731681,-11.875,37.3125,15.375
125.5,-1.28173828125,-0.8544921875,-0.18310546875,0.1374553666798913,-0.4831690420239875,-0.8822290719321269,-12.625,35.4375,14.5625
126.0,0.30517578125,0.3662109375,0.48828125,0.1384319589831232,-0.4716940824610126,-0.8786889248329112,-13.6875,38.5,15.375
126.5,0.18310546875,0.18310546875,0.8544921875,0.1369670705282754,-0.4760887478255562,-0.8780785546433912,-12.25,37.75,13.375
127.0,1.03759765625,0.67138671875,-1.0986328125,0.1376995147556993,-0.4846339304788354,-0.8777123325296793,-14.3125,36.5625,14.5625
127.5,0.54931640625,-0.06103515625,-0.91552734375,0.1390423291726432,-0.4813379314554277,-0.8769798883022553,-12.625,36.9375,16.5625
128.0,0.0,0.06103515625,-0.1220703125,0.1417279580065309,-0.477553636280404,-0.880275887325663,-11.875,36.5625,16.125
128.5,0.06103515625,0.0,-0.42724609375,0.1362346263008514,-0.4769432660908841,-0.8764915921506393,-12.9375,38.125,14.5625
129.0,-0.244140625,-0.3662109375,-0.1220703125,0.1390423291726432,-0.478408154545732,-0.8818628498184149,-10.875,39.25,15.375
129.5,-0.244140625,-0.79345703125,-0.9765625,0.1352580339976195,-0.4714499343852046,-0.8869899594103824,-13.3125,35.75,14.9375
130.0,0.244140625,0.0,-0.18310546875,0.1403851435895871,-0.4760887478255562,-0.8824732200079348,-11.875,35.75,13.75
130.5,0.42724609375,0.244140625,0.1220703125,0.1355021820734275,-0.4747459334086123,-0.8823511459700308,-10.5,36.9375,15.75
131.0,-0.67138671875,-0.48828125,-0.48828125,0.1369670705282754,-0.478530228583636,-0.881252479628895,-11.875,38.125,13.75
131.5,0.1220703125,0.18310546875,-0.3662109375,0.1313516647846919,-0.4647358623004852,-0.8823511459700308,-13.3125,37.75,14.5625
132.0,0.6103515625,0.48828125,0.06103515625,0.1383098849452192,-0.4743797112949003,-0.8828394421216468,-13.3125,36.5625,13.75
132.5,-0.06103515625,0.0,-0.18310546875,0.1424604022339549,-0.4735251930295724,-0.880397961363567,-12.625,36.5625,16.5625
133.0,0.30517578125,-0.06103515625,-0.244140625,0.1394085512863551,-0.4694967497787408,-0.880886257515183,-13.9375,38.5,14.5625
133.5,0.42724609375,0.18310546875,0.3662109375,0.1402630695516831,-0.4736472670674764,-0.8819849238563189,-12.25,36.125,16.5625
134.0,0.244140625,0.1220703125,0.18310546875,0.1374553666798913,-0.4742576372569964,-0.8829615161595508,-12.25,37.75,12.9375
134.5,0.0,0.0,-0.48828125,0.1392864772484512,-0.4710837122714926,-0.880031739249855,-12.25,35.75,15.375
135.0,0.18310546875,-0.06103515625,-0.18310546875,0.1357463301492355,-0.4704733420819727,-0.8822290719321269,-10.875,38.5,13.375
135.5,0.0,0.0,-0.30517578125,0.1330607013153477,-0.466811120944853,-0.8899197363200781,-11.25,35.0,13.75
136.0,0.18310546875,0.18310546875,-0.1220703125,0.1396526993621631,-0.4680318613238929,-0.8830835901974547,-13.3125,36.9375,16.5625
136.5,0.1220703125,-0.244140625,-0.18310546875,0.1369670705282754,-0.4662007507553331,-0.8851588488418226,-12.25,37.75,12.9375
137.0,0.67138671875,0.244140625,-0.06103515625,0.1398968474379711,-0.4723044526505325,-0.8829615161595508,-12.625,36.125,15.375
137.5,0.48828125,0.42724609375,-0.1220703125,0.1423383281960509,-0.4743797112949003,-0.8832056642353587,-12.9375,37.3125,14.9375
138.0,0.0,-0.06103515625,-0.18310546875,0.1431928464613788,-0.4714499343852046,-0.8840601825006866,-12.625,36.9375,15.75
138.5,0.18310546875,0.18310546875,-0.30517578125,0.1374553666798913,-0.4713278603473006,-0.8834498123111667,-12.25,36.125,14.1875
139.0,0.244140625,0.18310546875,-0.42724609375,0.1402630695516831,-0.4713278603473006,-0.8849147007660146,-13.3125,37.3125,16.125
139.5,-0.30517578125,0.06103515625,-0.244140625,0.1453901791436506,-0.4745017853328043,-0.8836939603869747,-11.5625,40.5,12.9375
140.0,0.06103515625,-0.06103515625,-0.244140625,0.1394085512863551,-0.4718161564989166,-0.8849147007660146,-10.875,40.5,7.5
140.5,0.3662109375,0.06103515625,0.244140625,0.1376995147556993,-0.4691305276650288,-0.880275887325663,-18.875,37.3125,15.75
141.0,0.1220703125,-0.1220703125,-0.18310546875,0.1387981810968352,-0.4710837122714926,-0.8845484786523026,-19.1875,35.75,13.75
141.5,-0.1220703125,0.1220703125,-0.3662109375,0.141483809930723,-0.4715720084231086,-0.8844264046143986,-13.6875,37.75,12.1875
142.0,4.5166015625,-15.0146484375,-5.31005859375,0.2294991912594988,-0.5031891842402417,-0.8885769219031342,-13.3125,37.3125,12.5625
142.5,19.10400390625,-11.65771484375,11.474609375,-0.0356456190679647,-0.6295358134708701,-0.7593005157628101,-13.6875,37.75,16.9375
143.0,-25.93994140625,24.96337890625,-32.958984375,0.0494399853511154,-0.6405224768822291,-0.7810296945097202,-14.3125,36.9375,12.1875
143.5,-2.50244140625,12.87841796875,-22.03369140625,0.3104342783898434,-0.434095278786584,-0.8656270027771844,-10.875,38.5,14.1875
144.0,18.4326171875,-22.4609375,38.51318359375,0.1892147587511826,-0.5581225012970367,-0.8071535386211738,-8.0625,40.5,11.4375
144.5,-0.1220703125,-5.859375,6.9580078125,0.2553788872951445,-0.5731376079592273,-0.9062776573992126,-13.3125,35.75,13.375
145.0,1.64794921875,2.0751953125,-3.0517578125,0.1702932828760643,-0.4793847468489638,-0.8749046296578875,-11.5625,34.625,16.5625
145.5,5.7373046875,5.31005859375,4.08935546875,0.162358470412305,-0.5096591082491531,-0.8860133671071505,-19.1875,33.8125,15.75
146.0,0.48828125,0.244140625,1.0986328125,0.1512497329630421,-0.4826807458723716,-0.8766136661885433,-20.25,33.0,15.375
146.5,13.61083984375,-41.50390625,16.78466796875,0.0394299142429883,-0.5344401379436629,-0.8357188634907071,-22.375,33.4375,13.375
147.0,-0.42724609375,31.494140625,-7.32421875,-0.0953398236030152,-0.5820490127262185,-0.7633289590136417,-20.625,33.8125,14.9375
147.5,-0.42724609375,-15.5029296875,3.35693359375,0.2023987548448133,-0.5057527390362254,-0.8998077333903012,-20.625,33.4375,14.9375
148.0,-0.8544921875,-3.173828125,-18.798828125,0.1449018829920346,-0.4533829767754143,-0.8777123325296793,-21.625,35.0,14.1875
148.5,1.0986328125,6.7138671875,-20.5078125,0.3325296792504654,-0.3735465559862056,-0.9226355784783472,-21.0,34.625,14.9375
149.0,-2.0751953125,5.615234375,-2.50244140625,0.368907742545854,-0.3724478896450697,-0.8828394421216468,-22.0,33.0,14.1875
149.5,-3.47900390625,10.07080078125,9.521484375,0.4287240211188086,-0.3088473158970916,-0.9504684591204564,-21.0,34.625,16.125
150.0,-1.64794921875,-0.42724609375,0.79345703125,0.380382702108829,-0.3758659627063814,-0.858668782616657,-11.25,37.3125,12.9375
150.5,-0.3662109375,-0.1220703125,-0.6103515625,0.3720816675313577,-0.3702505569627979,-0.8674581133457442,-11.875,36.125,14.5625
151.0,0.18310546875,0.18310546875,0.06103515625,0.3707388531144139,-0.369518112735374,-0.8683126316110721,-14.6875,36.5625,12.9375
151.5,-1.953125,0.1220703125,3.41796875,0.3700064088869899,-0.3559678945280312,-0.8708761864070559,-13.9375,36.5625,15.375
152.0,0.18310546875,0.42724609375,-1.03759765625,0.369151890621662,-0.3608508560441908,-0.8725852229377117,-12.625,39.25,10.25
152.5,1.40380859375,1.953125,-1.8310546875,0.4093142490920743,-0.368907742545854,-0.869045075838496,-17.125,36.5625,16.9375
153.0,14.95361328125,-30.57861328125,19.287109375,0.0230719931638538,-0.4860988189336833,-0.7994628742332225,-18.875,35.75,14.5625
153.5,-3.60107421875,-13.916015625,7.8125,0.1652882473220008,-0.4829248939481795,-0.8747825556199835,-13.3125,36.5625,16.5625
154.0,5.615234375,0.42724609375,-3.23486328125,0.1612598040711691,-0.4880520035401471,-0.870021668141728,-13.9375,37.3125,14.1875
154.5,11.962890625,-10.6201171875,-11.3525390625,0.0421155430768761,-0.532242805261391,-0.8535416730246894,-16.125,36.5625,11.75
155.0,4.150390625,1.03759765625,5.37109375,0.0443128757591479,-0.6361278115176855,-0.7768791772209845,-13.9375,39.6875,11.0625
155.5,-11.16943359375,14.95361328125,-19.1650390625,0.217413861507004,-0.5078279976805933,-0.8531754509109775,-12.9375,36.125,14.9375
156.0,10.19287109375,0.06103515625,5.55419921875,0.2732016968291268,-0.4419080172124393,-0.8624530777916807,-13.6875,37.75,12.5625
156.5,24.71923828125,-24.5361328125,42.96875,0.2841883602404859,-0.4973296304208502,-0.9089632862331004,-15.0625,38.125,16.125
157.0,5.43212890625,11.90185546875,-2.25830078125,0.1075472273934141,-0.5243079927976317,-0.8570818201239051,-12.9375,37.75,13.75
157.5,4.21142578125,-6.7138671875,2.86865234375,0.2352366710409863,-0.4961088900418103,-0.8282723471785638,-12.9375,38.5,15.375
158.0,-5.4931640625,18.9208984375,16.9677734375,0.1159703360087893,-0.4493545335245826,-0.8280281991027558,-12.25,35.75,11.0625
158.5,-2.38037109375,0.1220703125,-2.44140625,0.1604052858058412,-0.4947660756248664,-0.8670918912320322,-14.3125,37.3125,13.375
159.0,-0.18310546875,-0.244140625,-1.15966796875,0.1552781762138737,-0.4813379314554277,-0.8739280373546556,-13.9375,36.9375,14.5625
159.5,-0.06103515625,-0.06103515625,-0.48828125,0.151982177190466,-0.478530228583636,-0.8762474440748313,-12.25,37.75,16.9375
160.0,-0.244140625,-0.42724609375,-0.1220703125,0.1499069185460982,-0.4734031189916684,-0.8771019623401594,-12.625,38.125,16.125
160.5,0.18310546875,0.1220703125,-0.18310546875,0.1549119541001617,-0.4757225257118442,-0.8758812219611194,-12.625,35.4375,15.375
161.0,0.0,-0.06103515625,-0.06103515625,0.1532029175695059,-0.4748680074465163,-0.880886257515183,-13.9375,38.125,16.125
161.5,0.30517578125,0.1220703125,-0.244140625,0.1541795098727378,-0.4737693411053804,-0.8783227027191992,-15.375,37.75,14.5625
162.0,0.0,-0.1220703125,-0.06103515625,0.1508835108493301,-0.4771874141666921,-0.8783227027191992,-13.6875,37.3125,14.5625
162.5,0.06103515625,0.1220703125,-0.30517578125,0.1501510666219062,-0.4731589709158604,-0.879909665211951,-13.9375,38.125,13.75
163.0,-0.1220703125,0.1220703125,-0.3662109375,0.1566209906308175,-0.4757225257118442,-0.8778344065675833,-14.3125,35.75,16.5625
163.5,0.18310546875,0.1220703125,0.0,0.151860103152562,-0.4732810449537644,-0.8760032959990234,-13.6875,39.6875,13.375
164.0,0.06103515625,0.1220703125,-0.30517578125,0.1510055848872341,-0.4714499343852046,-0.8782006286812952,-14.3125,37.75,15.375
164.5,0.42724609375,0.18310546875,-0.244140625,0.1461226233710745,-0.4691305276650288,-0.8785668507950072,-12.25,35.4375,12.1875
165.0,0.1220703125,0.06103515625,-0.244140625,0.1508835108493301,-0.4716940824610126,-0.8785668507950072,-12.625,36.9375,13.75
165.5,0.42724609375,0.18310546875,-0.18310546875,0.1503952146977141,-0.4734031189916684,-0.8836939603869747,-15.0625,36.5625,15.375
166.0,0.30517578125,0.18310546875,-0.1220703125,0.1511276589251381,-0.4727927488021485,-0.8817407757805109,-19.1875,35.0,14.1875
166.5,-0.244140625,0.06103515625,-0.3662109375,0.1546678060243537,-0.4735251930295724,-0.8817407757805109,-11.875,38.5,7.9375
167.0,0.30517578125,0.06103515625,-0.244140625,0.1510055848872341,-0.4707174901577807,-0.879909665211951,-14.3125,39.25,13.75
167.5,0.244140625,0.244140625,-0.1220703125,0.1529587694936979,-0.4685201574755089,-0.8822290719321269,-16.4375,36.9375,13.75
168.0,0.54931640625,0.18310546875,-0.06103515625,0.1499069185460982,-0.4745017853328043,-0.8818628498184149,-17.8125,36.9375,14.5625
168.5,0.244140625,0.06103515625,-0.06103515625,0.1495406964323862,-0.4685201574755089,-0.879787591174047,-14.6875,38.125,13.75
169.0,-17.822265625,-2.0751953125,-19.4091796875,0.1484420300912503,-0.4629047517319254,-0.8551286355174413,-15.75,39.25,14.9375
169.5,15.869140625,-4.21142578125,11.04736328125,0.2163151951658681,-0.4485000152592547,-0.8779564806054873,-13.9375,37.3125,14.9375
170.0,12.3291015625,-7.8125,16.845703125,0.0291756950590533,-0.5872981963560899,-0.7860347300637837,-17.125,36.5625,14.9375
170.5,-12.451171875,8.9111328125,-30.45654296875,0.2106997894222846,-0.5532395397808771,-0.8286385692922758,-15.0625,36.5625,14.1875
171.0,-1.953125,1.77001953125,3.41796875,0.2417065950498977,-0.4615619373149815,-0.8302255317850277,-15.375,35.75,13.375
171.5,0.0,-21.728515625,5.06591796875,0.2074037903988769,-0.4715720084231086,-0.8629413739432966,-15.0625,37.3125,15.375
172.0,-5.79833984375,11.65771484375,0.67138671875,0.1582079531235694,-0.5229651783806879,-0.8391369365520188,-16.125,37.75,14.1875
172.5,-2.50244140625,-3.173828125,1.0986328125,0.2146061586352122,-0.4798730430005798,-0.8757591479232154,-14.6875,34.625,14.9375
173.0,0.54931640625,0.1220703125,-0.91552734375,0.1944639423810541,-0.4569231238746299,-0.8755149998474074,-14.6875,37.3125,17.3125
173.5,-0.1220703125,-0.48828125,0.6103515625,0.1911679433576464,-0.4618060853907895,-0.8783227027191992,-15.0625,36.5625,14.1875
174.0,0.3662109375,-0.244140625,0.244140625,0.1914120914334544,-0.4598529007843256,-0.8767357402264473,-14.6875,37.3125,14.1875
174.5,5.37109375,12.39013671875,9.6435546875,0.1870174260689108,-0.5171056245612964,-0.8341319009979553,-14.6875,36.5625,15.75
175.0,1.0986328125,0.8544921875,1.5869140625,0.2122867519150364,-0.4633930478835413,-0.8719748527481918,-14.6875,38.875,11.4375
175.5,0.18310546875,0.18310546875,-0.54931640625,0.2153386028626361,-0.4662007507553331,-0.869655446028016,-15.0625,36.125,15.75
176.0,0.0,-0.06103515625,-0.06103515625,0.2158268990142521,-0.4626606036561174,-0.8723410748619037,-15.375,37.3125,17.6875
176.5,0.0,0.1220703125,-0.30517578125,0.217047639393292,-0.4620502334665975,-0.8709982604449599,-17.125,35.75,16.9375
177.0,0.0,0.1220703125,-0.42724609375,0.2213202307199316,-0.4643696401867733,-0.8707541123691519,-15.0625,35.4375,16.125
177.5,0.1220703125,0.06103515625,-0.3662109375,0.2182683797723319,-0.4593646046327097,-0.8744163335062716,-16.75,36.125,11.75
178.0,0.732421875,0.3662109375,-0.3662109375,0.2185125278481399,-0.4653462324900052,-0.868923001800592,-15.0625,35.4375,18.0625
178.5,0.06103515625,-0.18310546875,0.1220703125,0.2180242316965239,-0.4626606036561174,-0.8717307046723838,-14.6875,36.9375,14.1875
179.0,0.18310546875,0.1220703125,-0.48828125,0.217169713431196,-0.4621723075045015,-0.8720969267860957,-13.9375,36.5625,15.75
179.5,0.0,-0.06103515625,-0.30517578125,0.2203436384166997,-0.456434827723014,-0.8746604815820795,-14.6875,37.75,14.1875
180.0,0.18310546875,-0.30517578125,0.9765625,0.2222968230231635,-0.4586321604052858,-0.8761253700369274,-14.3125,36.5625,15.75
180.5,0.1220703125,0.06103515625,-0.30517578125,0.2203436384166997,-0.456678975798822,-0.8742942594683676,-17.125,36.5625,12.9375
181.0,0.18310546875,0.1220703125,-0.244140625,0.2221747489852595,-0.4596087527085177,-0.8736838892788477,-15.375,36.125,14.1875
181.5,0.42724609375,0.244140625,-0.3662109375,0.2225409710989715,-0.4620502334665975,-0.8731955931272317,-15.375,38.5,15.75
182.0,-0.06103515625,-0.18310546875,0.0,0.2236396374401074,-0.4586321604052858,-0.8725852229377117,-16.4375,36.9375,16.125
182.5,-0.1220703125,0.18310546875,-0.18310546875,0.2181463057344279,-0.456678975798822,-0.8777123325296793,-15.0625,35.75,12.5625
183.0,0.79345703125,0.732421875,-0.18310546875,0.2219306009094515,-0.4629047517319254,-0.8722190008239997,-15.75,36.9375,12.5625
183.5,0.244140625,0.0,-0.30517578125,0.2226630451368755,-0.4586321604052858,-0.8714865565965758,-16.4375,35.75,16.5625
184.0,-0.06103515625,-0.244140625,0.244140625,0.2164372692037721,-0.456556901760918,-0.8762474440748313,-13.9375,35.75,12.9375
184.5,0.244140625,0.244140625,-0.18310546875,0.2242500076296273,-0.4577776421399578,-0.8745384075441756,-14.6875,36.5625,14.5625
185.0,0.0,0.06103515625,-0.18310546875,0.2219306009094515,-0.4599749748222297,-0.8711203344828639,-13.9375,36.125,16.5625
185.5,-0.06103515625,-0.18310546875,-0.244140625,0.217535935544908,-0.4583880123294778,-0.8723410748619037,-16.4375,35.4375,11.75
186.0,0.18310546875,0.06103515625,-0.1220703125,0.2208319345683156,-0.4572893459883419,-0.8736838892788477,-14.6875,36.5625,13.75
186.5,0.30517578125,0.06103515625,-0.18310546875,0.2198553422650837,-0.456556901760918,-0.8720969267860957,-15.0625,36.5625,14.5625
187.0,-0.1220703125,-0.30517578125,-0.244140625,0.2222968230231635,-0.455946531571398,-0.8764915921506393,-11.875,37.3125,14.1875
187.5,0.1220703125,-0.06103515625,-0.244140625,0.2205877864925077,-0.455946531571398,-0.8741721854304636,-17.125,36.5625,17.3125
188.0,0.732421875,0.3662109375,-0.06103515625,0.2264473403118991,-0.4610736411633656,-0.8718527787102878,-14.6875,36.9375,12.9375
188.5,0.0,0.0,-0.18310546875,0.2226630451368755,-0.4586321604052858,-0.8727072969756157,-14.6875,35.75,13.375
189.0,0.0,-0.06103515625,-0.1220703125,0.2235175634022034,-0.4610736411633656,-0.8769798883022553,-15.75,37.3125,15.75
189.5,2.685546875,0.3662109375,0.06103515625,0.2273018585772271,-0.4756004516739402,-0.858546708578753,-13.9375,35.4375,16.9375
190.0,-1.03759765625,-0.6103515625,-0.732421875,0.2143620105594043,-0.4631488998077334,-0.8673360393078402,-15.0625,34.625,12.5625
190.5,0.0,0.91552734375,1.40380859375,0.23902096621601,-0.4614398632770775,-0.8840601825006866,-13.6875,36.9375,12.9375
191.0,0.3662109375,0.1220703125,-0.1220703125,0.2222968230231635,-0.4619281594286935,-0.8708761864070559,-13.6875,38.125,10.625
191.5,0.244140625,0.6103515625,0.0,0.2146061586352122,-0.4655903805658131,-0.8725852229377117,-12.9375,39.25,10.625
192.0,-0.1220703125,0.0,-0.732421875,0.2255928220465712,-0.4687643055513169,-0.8661152989288003,-19.9375,33.4375,14.9375
192.5,0.1220703125,0.18310546875,-0.1220703125,0.2198553422650837,-0.4609515671254616,-0.869533371990112,-20.25,34.625,14.9375
193.0,0.3662109375,0.06103515625,-0.3662109375,0.2233954893642994,-0.4591204565569017,-0.8669698171941282,-15.75,38.125,10.25
193.5,0.48828125,0.42724609375,-0.18310546875,0.2269356364635151,-0.4632709738456373,-0.8692892239143041,-15.75,36.125,10.625
194.0,0.244140625,0.244140625,0.0,0.2231513412884914,-0.4642475661488693,-0.8711203344828639,-19.5625,34.1875,13.75
194.5,-2.50244140625,-5.37109375,-8.1787109375,0.1893368327890865,-0.4531388286996063,-0.8570818201239051,-17.8125,33.8125,16.9375
195.0,22.76611328125,-7.2021484375,13.916015625,0.1054719687490463,-0.5804620502334666,-0.8305917538987396,-16.4375,36.9375,11.75
195.5,-32.3486328125,9.09423828125,-32.71484375,0.1724906155583361,-0.5637379070406201,-0.8597674489577929,-12.9375,38.125,12.1875
196.0,-4.57763671875,1.5869140625,-15.19775390625,0.380504776146733,-0.3932004760887478,-0.9045686208685568,-16.75,37.3125,15.375
196.5,20.44677734375,0.6103515625,13.24462890625,0.3075045014801477,-0.4569231238746299,-0.8949247718741417,-14.3125,35.0,12.1875
197.0,7.01904296875,-2.0751953125,11.41357421875,0.1567430646687215,-0.5794854579302346,-0.8178960539567247,-15.375,37.3125,13.75
197.5,-2.9296875,1.89208984375,-12.51220703125,0.1383098849452192,-0.4842677083651234,-0.8286385692922758,-16.4375,38.5,15.375
198.0,-7.2021484375,-3.47900390625,-4.150390625,0.249641407513657,-0.4196905423139134,-0.8669698171941282,-15.375,37.3125,12.1875
198.5,3.23486328125,2.62451171875,1.89208984375,0.2984710226752525,-0.3983275856807153,-0.8873561815240943,-17.8125,37.75,11.4375
199.0,18.6767578125,-10.6201171875,24.90234375,0.1796929837946714,-0.5133213293862727,-0.8397473067415387,-19.9375,33.8125,15.75
199.5,-13.73291015625,20.69091796875,-8.97216796875,0.119632557145909,-0.5385906552323985,-0.838038270210883,-15.0625,38.125,12.1875
200.0,-0.54931640625,-6.77490234375,-4.5166015625,0.2193670461134678,-0.4491103854487747,-0.8459730826746422,-14.3125,39.25,11.75
200.5,0.30517578125,0.18310546875,0.3662109375,0.2121646778771324,-0.4732810449537644,-0.8673360393078402,-19.5625,35.0,18.0625
201.0,0.18310546875,0.67138671875,-0.3662109375,0.2117984557634205,-0.4710837122714926,-0.8703878902554399,-19.9375,33.4375,17.6875
201.5,-0.6103515625,-1.64794921875,-0.244140625,0.2108218634601886,-0.4818262276070437,-0.8569597460860011,-11.875,35.75,18.0625
202.0,-0.1220703125,-0.3662109375,-0.6103515625,0.2056947538682211,-0.4749900814844203,-0.870265816217536,-18.1875,35.4375,18.5
202.5,-7.8125,0.91552734375,-6.89697265625,0.1868953520310068,-0.423841059602649,-0.8692892239143041,-16.75,36.125,16.125
203.0,7.01904296875,-2.685546875,-5.126953125,0.2985930967131565,-0.3346049378948332,-0.9176305429242836,-15.75,35.4375,10.625
203.5,22.216796875,-15.380859375,16.29638671875,0.1993469038972136,-0.5571459089938048,-0.8172856837672048,-16.4375,36.9375,15.75
204.0,-1.28173828125,7.01904296875,-4.39453125,0.0527359843745231,-0.631244850001526,-0.7741935483870968,-17.5,35.4375,15.375
204.5,-26.91650390625,17.4560546875,-28.86962890625,0.2789391766106143,-0.5404217658009582,-0.9316690572832422,-17.5,35.0,12.9375
205.0,0.54931640625,2.44140625,0.48828125,0.3111667226172673,-0.358897671437727,-0.9120151371807,-16.75,37.3125,12.5625
205.5,22.4609375,-10.68115234375,12.8173828125,0.0296639912106692,-0.4599749748222297,-0.8506118961149938,-14.6875,37.3125,12.9375
206.0,-17.88330078125,29.96826171875,-21.54541015625,0.2049623096407971,-0.4099246192815943,-0.9219031342509232,-15.375,34.625,14.9375
206.5,3.173828125,-4.150390625,0.6103515625,0.3211767937253944,-0.4244514297921689,-0.8987090670491653,-15.75,34.1875,16.5625
207.0,-2.9296875,-11.53564453125,15.93017578125,0.1461226233710745,-0.4696188238166447,-0.8431653798028504,-16.4375,35.75,17.6875
207.5,2.62451171875,-0.244140625,-0.42724609375,0.2042298654133732,-0.500137333292642,-0.869533371990112,-18.875,34.1875,13.75
208.0,1.64794921875,1.8310546875,-1.8310546875,0.2049623096407971,-0.4736472670674764,-0.8692892239143041,-19.5625,35.0,14.9375
208.5,-1.708984375,-1.8310546875,-1.64794921875,0.1855525376140629,-0.4602191228980377,-0.8749046296578875,-19.1875,34.625,15.375
209.0,-0.18310546875,-2.685546875,-1.28173828125,0.2163151951658681,-0.4516739402447584,-0.8429212317270425,-17.125,35.0,16.125
209.5,-2.44140625,-0.9765625,0.3662109375,0.2106997894222846,-0.4439832758568071,-0.8684347056489761,-19.1875,35.0,14.5625
210.0,1.8310546875,-14.83154296875,-3.90625,0.2207098605304117,-0.4358043153172399,-0.8807641834772789,-17.125,34.1875,16.9375
210.5,1.708984375,-6.53076171875,-5.2490234375,0.1883602404858546,-0.4498428296761986,-0.8948026978362377,-20.25,33.8125,17.3125
211.0,3.84521484375,-3.23486328125,-3.72314453125,0.1446577349162267,-0.4327524643696402,-0.8927274391918699,-18.1875,35.75,17.6875
211.5,0.79345703125,-0.1220703125,-0.8544921875,0.1451460310678426,-0.4397106845301675,-0.8944364757225257,-16.4375,35.4375,16.125
212.0,-1.46484375,-1.0986328125,0.732421875,0.1582079531235694,-0.4231086153752251,-0.9057893612475968,-16.125,34.1875,12.9375
212.5,1.89208984375,2.197265625,0.48828125,0.1449018829920346,-0.4336069826349681,-0.9002960295419171,-16.125,33.0,18.875
213.0,-0.732421875,1.46484375,-0.732421875,0.1547898800622577,-0.423963133640553,-0.9095736564226204,-18.875,33.8125,16.5625
213.5,-1.28173828125,0.42724609375,0.79345703125,0.1593066194647053,-0.434217352824488,-0.9013946958830532,-17.5,35.4375,16.125
214.0,0.8544921875,1.46484375,-2.8076171875,0.141483809930723,-0.423963133640553,-0.8991973632007813,-18.5625,33.8125,16.5625
214.5,0.91552734375,0.18310546875,-4.39453125,0.1583300271614734,-0.4380016479995117,-0.8998077333903012,-17.5,36.125,16.125
215.0,-0.79345703125,-1.0986328125,1.3427734375,0.1453901791436506,-0.4255500961333048,-0.902127140110477,-19.9375,35.75,15.375
215.5,-0.48828125,-1.0986328125,0.30517578125,0.1449018829920346,-0.4188360240485854,-0.9085970641193885,-17.125,33.4375,18.0625
216.0,-0.54931640625,-0.67138671875,-0.18310546875,0.1497848445081942,-0.4216437269203772,-0.9071321756645404,-16.4375,34.1875,15.375
216.5,-1.28173828125,0.3662109375,0.30517578125,0.1425824762718588,-0.4265266884365367,-0.9079866939298684,-17.5,35.0,14.5625
217.0,0.79345703125,1.708984375,0.1220703125,0.1470992156743064,-0.4289681691946165,-0.911160618915372,-17.8125,33.4375,20.5
217.5,2.01416015625,2.8076171875,-0.54931640625,0.1346476638080996,-0.4287240211188086,-0.9094515823847164,-19.1875,35.4375,14.1875
218.0,-0.3662109375,-0.91552734375,0.06103515625,0.1445356608783227,-0.4323862422559282,-0.9006622516556292,-16.75,34.1875,18.0625
218.5,-0.54931640625,1.3427734375,-1.0986328125,0.1492965483565782,-0.4386120181890316,-0.9077425458540604,-17.5,32.6875,15.375
219.0,0.244140625,-0.3662109375,-0.06103515625,0.1372112186040833,-0.4286019470809045,-0.9015167699209572,-18.875,34.625,15.75
219.5,0.6103515625,-2.13623046875,-0.732421875,0.119266335032197,-0.434949797051912,-0.8839381084627826,-17.125,34.1875,18.0625
220.0,-0.91552734375,-2.44140625,0.79345703125,0.1486861781670583,-0.4213995788445692,-0.9103061006500442,-17.125,33.4375,16.5625
220.5,0.3662109375,1.15966796875,-0.1220703125,0.1336710715048677,-0.4286019470809045,-0.9028595843379008,-17.8125,34.625,16.125
221.0,-0.42724609375,-0.244140625,-1.28173828125,0.1468550675984984,-0.4286019470809045,-0.8984649189733573,-17.8125,36.5625,12.5625
221.5,0.54931640625,1.953125,0.54931640625,0.1329386272774437,-0.4323862422559282,-0.902493362224189,-21.625,31.875,15.75
222.0,-0.91552734375,-1.46484375,-0.732421875,0.1500289925840022,-0.4306772057252723,-0.8972441785943175,-16.75,39.25,12.9375
222.5,-1.0986328125,1.77001953125,-1.64794921875,0.1557664723654896,-0.4264046143986327,-0.911893063142796,-18.5625,33.0,17.3125
223.0,0.6103515625,-0.54931640625,0.8544921875,0.1464888454847865,-0.434461500900296,-0.9039582506790368,-18.5625,34.1875,16.5625
223.5,-1.28173828125,-2.01416015625,1.5869140625,0.1545457319864497,-0.4337290566728721,-0.8993194372386852,-16.125,33.0,17.3125
224.0,-0.3662109375,-1.15966796875,-0.06103515625,0.1502731406598101,-0.4361705374309518,-0.9031037324137088,-17.125,36.125,20.5
224.5,-1.28173828125,-2.01416015625,-0.67138671875,0.1335489974669637,-0.4110232856227301,-0.9065218054750206,-17.125,34.625,16.9375
225.0,0.42724609375,-2.01416015625,0.8544921875,0.1252479628894924,-0.4359263893551439,-0.9057893612475968,-17.5,35.4375,16.125
225.5,8.97216796875,-2.5634765625,8.30078125,0.2010559404278695,-0.4531388286996063,-0.9398480178228096,-16.125,35.75,17.3125
226.0,-9.6435546875,39.4287109375,-28.1982421875,0.2401196325571459,-0.5058748130741295,-0.956938383129368,-18.5625,35.0,16.9375
226.5,21.30126953125,-28.13720703125,30.517578125,0.1915341654713583,-0.5302896206549272,-0.8521988586077456,-18.875,35.0,14.9375
227.0,-16.29638671875,0.6103515625,-15.93017578125,0.2108218634601886,-0.4430066835535752,-0.935697500534074,-17.125,32.6875,14.9375
227.5,-1.28173828125,-1.52587890625,-0.732421875,0.1633350627155369,-0.4443494979705191,-0.8983428449354534,-18.1875,32.6875,15.75
228.0,-1.03759765625,0.30517578125,-0.54931640625,0.1539353617969298,-0.4035767693105869,-0.911282692953276,-21.625,35.0,15.75
228.5,-0.8544921875,0.3662109375,-1.77001953125,0.162846766563921,-0.4184698019348735,-0.9027375102999968,-18.1875,35.0,14.1875
229.0,0.3662109375,0.42724609375,1.953125,0.1353801080355235,-0.4192022461622974,-0.9101840266121404,-18.875,35.4375,14.1875
229.5,0.6103515625,-0.30517578125,0.18310546875,0.1617481002227851,-0.4272591326639607,-0.8928495132297739,-19.1875,36.125,16.5625
230.0,-0.18310546875,0.06103515625,0.18310546875,0.1483199560533463,-0.4279915768913846,-0.8993194372386852,-19.9375,33.4375,12.9375
230.5,0.42724609375,0.8544921875,-2.685546875,0.1461226233710745,-0.4303109836115604,-0.8922391430402539,-19.5625,35.4375,16.5625
231.0,1.3427734375,-1.03759765625,-2.685546875,0.1611377300332651,-0.4156620990630817,-0.911526841029084,-17.5,33.8125,17.3125
231.5,1.8310546875,4.8828125,-2.50244140625,0.1523483993041779,-0.4148075807977538,-0.8993194372386852,-20.25,34.625,12.5625
232.0,0.244140625,-0.18310546875,1.0986328125,0.195684682760094,-0.4433729056672872,-0.8994415112765892,-19.5625,34.1875,17.6875
232.5,0.9765625,0.06103515625,-0.48828125,0.1699270607623523,-0.4182256538590655,-0.9032258064516128,-19.5625,35.0,15.375
233.0,2.685546875,5.0048828125,-2.8076171875,0.2034974211859492,-0.4531388286996063,-0.8869899594103824,-21.3125,35.0,16.9375
233.5,-0.06103515625,0.0,-7.99560546875,0.227423932615131,-0.4206671346171453,-0.8872341074861904,-21.0,33.8125,16.125
234.0,0.79345703125,2.0751953125,-0.42724609375,0.2219306009094515,-0.4475234229560228,-0.879665517136143,-20.25,35.4375,12.1875
234.5,-1.5869140625,-1.3427734375,0.1220703125,0.2221747489852595,-0.4696188238166447,-0.8664815210425123,-20.25,33.8125,16.125
235.0,-0.244140625,0.732421875,-0.67138671875,0.2246162297433393,-0.4542374950407422,-0.8738059633167516,-14.6875,38.5,10.625
235.5,0.1220703125,-0.06103515625,-0.244140625,0.2180242316965239,-0.4495986816003906,-0.8738059633167516,-11.875,41.1875,9.125
236.0,0.18310546875,0.18310546875,-0.3662109375,0.2224188970610675,-0.4555803094576861,-0.8764915921506393,-20.625,32.25,14.9375
236.5,0.244140625,-0.244140625,0.18310546875,0.2222968230231635,-0.4583880123294778,-0.8720969267860957,-23.0625,32.6875,14.9375
237.0,-0.30517578125,0.0,-0.42724609375,0.2237617114780114,-0.4553361613818781,-0.8769798883022553,-15.75,36.9375,12.9375
237.5,-0.244140625,-0.06103515625,-0.06103515625,0.2215643787957396,-0.4480117191076387,-0.8795434430982391,-14.3125,36.9375,17.6875
238.0,-0.18310546875,0.0,-0.3662109375,0.2249824518570513,-0.4495986816003906,-0.8788109988708152,-18.875,34.625,13.75
238.5,-0.1220703125,-0.18310546875,-0.42724609375,0.2211981566820276,-0.4492324594866786,-0.8786889248329112,-13.6875,38.875,12.5625
239.0,0.42724609375,0.54931640625,-0.42724609375,0.2238837855159154,-0.4487441633350627,-0.879909665211951,-13.3125,37.3125,9.875
239.5,9.21630859375,-8.48388671875,7.6904296875,0.2681966612750633,-0.5031891842402417,-0.8639179662465285,-19.5625,32.25,17.6875
240.0,17.2119140625,-16.11328125,10.8642578125,0.031739249855037,-0.6237983336893826,-0.7701651051362651,-21.0,33.4375,18.0625
240.5,-22.15576171875,15.380859375,-16.05224609375,0.0570085757011627,-0.6438184759056368,-0.7616199224829859,-13.3125,38.5,12.1875
241.0,-4.94384765625,11.474609375,-23.0712890625,0.2663655507065035,-0.3537705618457594,-0.9201940977202674,-14.3125,35.0,16.5625
241.5,0.18310546875,-10.43701171875,17.51708984375,0.3614612262337107,-0.3527939695425275,-0.902615436262093,-11.25,38.125,12.1875
242.0,-9.521484375,45.0439453125,12.63427734375,0.0838648640400402,-0.5179601428266244,-0.7862788781395916,-13.3125,39.25,13.75
242.5,-4.82177734375,5.0048828125,-18.4326171875,0.1563768425550096,-0.445326090273751,-0.8531754509109775,-15.375,36.5625,15.75
243.0,23.25439453125,3.35693359375,11.90185546875,0.293221839045381,-0.5402996917630543,-0.8515884884182257,-13.9375,36.125,16.125
243.5,21.728515625,-21.728515625,14.5263671875,0.021362956633198,-0.5564134647663808,-0.7741935483870968,-15.0625,36.9375,15.375
244.0,-20.20263671875,15.869140625,-17.2119140625,0.0732444227423932,-0.6156193731498154,-0.7669911801507614,-13.9375,36.5625,17.3125
244.5,7.50732421875,-9.521484375,-5.615234375,0.1980040894802698,-0.3874629963072603,-0.9433881649220252,-14.6875,35.75,19.25
245.0,29.35791015625,-0.79345703125,16.357421875,0.1831110568559831,-0.4947660756248664,-0.8628192999053926,-15.375,35.75,18.0625
245.5,-17.578125,24.84130859375,-4.7607421875,-0.0490737632374034,-0.4542374950407422,-0.7696768089846492,-16.75,35.0,16.9375
246.0,-2.44140625,-4.21142578125,2.9296875,0.250129703665273,-0.489150669881283,-0.880520035401471,-14.6875,35.0,16.9375
246.5,3.23486328125,-7.6904296875,-8.72802734375,-0.0285653248695333,-0.5637379070406201,-0.8127689443647572,-14.6875,36.5625,16.5625
247.0,-18.310546875,26.18408203125,-0.48828125,0.0556657612842188,-0.5276039918210395,-0.8807641834772789,-13.9375,33.8125,15.75
247.5,-1.52587890625,-2.50244140625,0.3662109375,0.1337931455427717,-0.3973509933774834,-0.9210486159855952,-15.375,35.75,17.3125
248.0,1.28173828125,1.03759765625,-3.23486328125,0.1470992156743064,-0.4460585345011749,-0.9035920285653248,-13.3125,35.4375,15.75
248.5,0.1220703125,0.732421875,-0.3662109375,0.1502731406598101,-0.4243293557542649,-0.912259285256508,-14.6875,34.1875,16.9375
249.0,0.42724609375,0.1220703125,0.1220703125,0.1490524002807703,-0.4210333567308573,-0.9067659535508286,-14.3125,36.125,18.5
249.5,0.0,-0.06103515625,-0.06103515625,0.1497848445081942,-0.4104129154332102,-0.9067659535508286,-16.125,35.0,16.5625
250.0,0.18310546875,0.244140625,-0.67138671875,0.1538132877590258,-0.4183477278969695,-0.9009063997314372,-17.5,34.1875,17.3125
250.5,0.244140625,0.30517578125,-0.54931640625,0.1530808435316019,-0.4204229865413373,-0.9072542497024444,-16.125,35.4375,16.9375
251.0,0.244140625,0.244140625,-0.30517578125,0.1535691396832178,-0.4193243202002014,-0.9063997314371166,-17.125,35.0,15.75
251.5,-0.244140625,-0.244140625,-0.67138671875,0.15149388103885,-0.4151738029114658,-0.9085970641193885,-16.4375,33.4375,18.5
252.0,0.1220703125,0.06103515625,-0.244140625,0.1551561021759697,-0.4149296548356578,-0.9076204718161563,-16.75,35.0,20.5
252.5,-0.244140625,0.0,-0.3662109375,0.1533249916074099,-0.4141972106082339,-0.9110385448774682,-15.75,34.1875,16.9375
253.0,0.42724609375,0.18310546875,0.06103515625,0.1551561021759697,-0.4168828394421216,-0.9081087679677724,-16.4375,35.0,15.75
253.5,0.48828125,0.0,0.30517578125,0.151738029114658,-0.4195684682760094,-0.9065218054750206,-16.4375,34.1875,20.5
254.0,-1.0986328125,0.732421875,-0.6103515625,0.1613818781090731,-0.423474837488937,-0.9071321756645404,-16.125,35.0,17.3125
254.5,-2.44140625,-1.3427734375,-4.5166015625,0.1694387646107364,-0.4004028443250831,-0.9095736564226204,-15.375,33.4375,17.6875
255.0,-1.46484375,0.06103515625,-3.84521484375,0.1741996520889919,-0.3811151463362529,-0.9215369121372112,-17.5,34.1875,14.5625
255.5,-0.06103515625,-1.220703125,-0.30517578125,0.1867732779931028,-0.3645130771813105,-0.9221472823267312,-16.125,35.0,17.6875
256.0,0.48828125,0.1220703125,-0.3662109375,0.1766411328470717,-0.3872188482314523,-0.9170201727347636,-16.125,33.0,18.5
256.5,-0.06103515625,0.18310546875,-0.42724609375,0.1803033539841914,-0.3875850703451643,-0.9161656544694358,-16.75,32.6875,17.3125
257.0,0.0,-0.30517578125,0.1220703125,0.1765190588091677,-0.3850215155491805,-0.9184850611896116,-18.1875,33.8125,17.6875
257.5,0.18310546875,-0.67138671875,0.30517578125,0.1760307626575518,-0.3811151463362529,-0.9165318765831476,-16.125,36.125,16.125
258.0,3.11279296875,0.6103515625,1.5869140625,0.1748100222785119,-0.4205450605792413,-0.911893063142796,-16.4375,35.0,14.9375
258.5,1.0986328125,0.79345703125,-0.18310546875,0.1811578722495193,-0.3891720328379162,-0.9175084688863796,-16.4375,34.625,17.3125
259.0,0.06103515625,0.18310546875,-0.48828125,0.1794488357188635,-0.3866084780419324,-0.9155552842799156,-15.75,35.0,22.0625
259.5,-0.06103515625,-0.06103515625,-0.79345703125,0.1763969847712637,-0.3859981078524125,-0.9145786919766838,-16.75,34.625,16.125
260.0,0.244140625,0.244140625,-0.244140625,0.1784722434156316,-0.3845332193975646,-0.9167760246589556,-17.125,36.125,14.9375
260.5,0.30517578125,0.30517578125,-0.6103515625,0.1792046876430555,-0.3834345530564287,-0.9195837275307474,-16.75,35.0,16.9375
261.0,0.0,-0.18310546875,-0.1220703125,0.1829889828180791,-0.3842890713217566,-0.9171422467726676,-16.125,33.4375,17.3125
261.5,-0.3662109375,-2.8076171875,-3.47900390625,0.1972716452528458,-0.4043092135380108,-0.9081087679677724,-16.125,34.625,18.0625
262.0,0.30517578125,-2.9296875,-1.3427734375,0.1767632068849757,-0.3862422559282205,-0.9188512833033234,-16.75,34.625,15.75
262.5,1.89208984375,-0.9765625,1.52587890625,0.1599169896542253,-0.4030884731589709,-0.9066438795129246,-17.5,33.4375,16.9375
263.0,0.67138671875,5.43212890625,-3.72314453125,0.1662648396252327,-0.4008911404766991,-0.912747581408124,-16.4375,34.1875,15.375
263.5,-1.953125,-1.40380859375,2.0751953125,0.1720023194067201,-0.401989806817835,-0.9164098025452436,-17.5,34.1875,17.6875
264.0,0.30517578125,0.6103515625,-1.3427734375,0.1656544694357127,-0.3817255165257728,-0.9159215063936276,-19.1875,35.0,20.5
264.5,0.48828125,2.9296875,0.91552734375,0.173100985747856,-0.3834345530564287,-0.912137211218604,-16.75,35.0,18.5
265.0,1.708984375,0.732421875,0.67138671875,0.1781060213019196,-0.3845332193975646,-0.913113803521836,-15.75,35.75,16.9375
265.5,0.244140625,0.244140625,0.0,0.1702932828760643,-0.4043092135380108,-0.9093295083468124,-16.4375,35.75,14.1875
266.0,0.67138671875,-0.48828125,0.6103515625,0.1805475020599994,-0.3968626972258675,-0.9081087679677724,-15.0625,39.25,13.75
266.5,-0.3662109375,0.0,-0.6103515625,0.1827448347422711,-0.4030884731589709,-0.911648915066988,-22.0,32.25,12.9375
267.0,-0.18310546875,0.06103515625,-0.48828125,0.1822565385906552,-0.402356028931547,-0.9076204718161563,-23.375,32.6875,13.75
267.5,0.244140625,0.30517578125,-0.42724609375,0.1815240943632313,-0.3960081789605396,-0.9079866939298684,-18.1875,35.75,13.375
268.0,-0.18310546875,0.06103515625,0.06103515625,0.1834772789696951,-0.3916135135959959,-0.9095736564226204,-14.3125,38.875,17.3125
268.5,0.42724609375,0.0,-0.06103515625,0.1895809808648945,-0.3985717337565233,-0.912137211218604,-22.0,33.0,13.375
269.0,0.3662109375,0.244140625,-0.48828125,0.1860408337656788,-0.3968626972258675,-0.9063997314371166,-20.25,37.75,10.625
269.5,0.48828125,0.1220703125,-0.06103515625,0.183965575121311,-0.3982055116428113,-0.9099398785363324,-7.0,36.5625,17.6875
270.0,0.30517578125,0.18310546875,-0.42724609375,0.1864070558793908,-0.4060182500686666,-0.9105502487258522,-4.9375,35.4375,18.875
270.5,1.03759765625,1.8310546875,0.6103515625,0.1932432020020142,-0.3980834376049074,-0.9159215063936276,-7.6875,35.0,18.0625
271.0,27.77099609375,-16.66259765625,11.65771484375,0.1705374309518723,-0.5310220648823512,-0.8727072969756157,-7.0,38.125,12.9375
271.5,6.04248046875,6.9580078125,2.5634765625,0.0642109439374981,-0.6128116702780236,-0.7983642078920865,-7.375,37.3125,14.9375
272.0,-28.62548828125,12.0849609375,-32.2265625,0.3709830011902219,-0.4190801721243934,-0.8762474440748313,-8.4375,38.5,13.375
272.5,0.3662109375,-2.44140625,6.8359375,0.358653523361919,-0.3946653645435957,-0.8436536759544664,-9.125,38.125,15.375
273.0,32.470703125,-57.43408203125,39.306640625,0.1805475020599994,-0.4704733420819727,-0.8545182653279214,-4.5625,39.25,14.1875
273.5,-2.74658203125,1.5869140625,-0.9765625,0.053590502639851,-0.4762108218634602,-0.8279061250648518,-6.0,35.4375,14.5625
274.0,6.103515625,5.615234375,-10.55908203125,0.4292123172704245,-0.4471572008423108,-0.8146000549333171,-7.6875,35.4375,17.3125
274.5,1.708984375,10.3759765625,29.11376953125,0.336313974425489,-0.4638813440351573,-0.8443861201818903,-11.875,36.5625,15.375
275.0,-20.32470703125,26.91650390625,44.5556640625,0.2984710226752525,-0.4420300912503433,-0.8385265663624989,-11.5,37.3125,12.1875
275.5,-1.52587890625,6.28662109375,3.35693359375,0.3761101107821894,-0.3853877376628925,-0.8574480422376172,-7.0,37.3125,16.9375
276.0,5.4931640625,-4.82177734375,-12.8173828125,0.3564561906796472,-0.3786736655781731,-0.8668477431562243,-11.5,37.3125,20.875
276.5,27.2216796875,-14.7705078125,-0.8544921875,0.2430494094668416,-0.5475020599993896,-0.7909176915799432,-14.6875,36.5625,15.375
277.0,-8.48388671875,12.20703125,-4.69970703125,0.2506179998168889,-0.4528946806237983,-0.8617206335642568,-12.625,37.3125,17.3125
277.5,8.9111328125,-7.32421875,0.91552734375,0.2861415448469496,-0.5258949552903837,-0.8105716116824855,-9.8125,37.3125,17.3125
278.0,4.0283203125,-27.83203125,-8.11767578125,0.3024994659260842,-0.4289681691946165,-0.8760032959990234,-4.5625,39.25,12.5625
278.5,2.685546875,3.84521484375,14.16015625,0.260872219000824,-0.4847560045167394,-0.8502456740012818,-0.75,41.625,7.9375
279.0,-2.8076171875,-3.0517578125,-7.50732421875,0.206427198095645,-0.5272377697073275,-0.8274178289132359,-7.6875,40.5,11.4375
279.5,-8.72802734375,6.28662109375,-6.8359375,0.2236396374401074,-0.4171269875179296,-0.825952940458388,-11.25,35.4375,14.9375
280.0,20.08056640625,-3.90625,6.16455078125,0.4178594317453535,-0.4692526017029328,-0.847560045167394,-11.25,38.125,11.75
280.5,0.8544921875,-3.7841796875,2.62451171875,0.4088259529404583,-0.4658345286416211,-0.826563310647908,-3.875,39.25,12.9375
281.0,-2.01416015625,-14.2822265625,9.09423828125,0.2735679189428388,-0.4437391277809991,-0.8359630115665151,-9.4375,40.0625,13.375
281.5,-3.41796875,7.87353515625,-19.4091796875,0.1551561021759697,-0.3818475905636769,-0.8075197607348857,-12.9375,36.9375,18.0625
282.0,5.43212890625,1.52587890625,-0.3662109375,0.3932004760887478,-0.3729361857966857,-0.9087191381572924,-18.1875,35.0,13.75
282.5,-1.77001953125,-2.25830078125,5.859375,0.3733024079103976,-0.3972289193395794,-0.8636738181707205,-18.5625,35.4375,9.125
283.0,-0.732421875,-1.40380859375,11.3525390625,0.3099459822382275,-0.4369029816583758,-0.8624530777916807,-18.875,36.5625,12.5625
283.5,18.798828125,-11.962890625,11.04736328125,0.1389202551347392,-0.4607074190496536,-0.8603778191473128,-16.75,34.1875,17.3125
284.0,11.41357421875,7.75146484375,15.7470703125,0.1460005493331705,-0.6364940336313974,-0.7701651051362651,-20.625,31.5,21.25
284.5,-4.7607421875,10.31494140625,-10.19287109375,0.1282998138370921,-0.6721396526993622,-0.7271950437940611,-21.3125,34.1875,14.9375
285.0,-6.53076171875,-26.85546875,-7.38525390625,0.1871395001068148,-0.3559678945280312,-0.9518112735374004,-14.6875,36.9375,13.75
285.5,3.7841796875,2.25830078125,9.765625,0.2961516159550768,-0.3591418195135349,-0.9063997314371166,-16.75,36.5625,16.125
286.0,22.03369140625,-0.9765625,9.33837890625,0.0443128757591479,-0.4820703756828516,-0.8337656788842432,-20.625,37.3125,12.9375
286.5,-9.46044921875,-1.15966796875,-10.07080078125,0.13037507248146,-0.5713064973906674,-0.8128910184026612,-18.1875,35.0,13.375
287.0,-9.70458984375,13.12255859375,-23.98681640625,0.2000793481246376,-0.4088259529404583,-0.9166539506210516,-17.125,36.125,14.1875
287.5,33.5693359375,-5.9814453125,-17.333984375,0.249397259437849,-0.4963530381176183,-0.8535416730246894,-16.4375,38.125,14.5625
288.0,5.859375,6.2255859375,1.46484375,0.2424390392773217,-0.4303109836115604,-0.8795434430982391,-14.6875,35.4375,10.625
288.5,0.30517578125,0.6103515625,0.732421875,0.3115329447309793,-0.4965971861934263,-0.8581804864650411,-16.75,35.4375,14.5625
289.0,-3.41796875,-7.99560546875,1.220703125,0.3337504196295053,-0.456678975798822,-0.8617206335642568,-17.8125,36.125,12.5625
289.5,7.568359375,-6.103515625,-12.02392578125,0.1832331308938871,-0.4404431287575915,-0.8639179662465285,-17.125,36.5625,15.75
290.0,4.33349609375,12.51220703125,8.48388671875,0.2893154698324534,-0.281746879482406,-0.9461958677938168,-17.5,35.75,13.375
290.5,24.7802734375,-35.0341796875,48.27880859375,0.2109439374980926,-0.5340739158299509,-0.8960234382152775,-22.0,32.6875,17.3125
291.0,-1.15966796875,5.92041015625,-1.89208984375,0.0732444227423932,-0.4896389660328989,-0.8540299691763055,-17.5,35.75,10.625
291.5,3.35693359375,-1.89208984375,-19.83642578125,0.3048188726462599,-0.3346049378948332,-0.9947813348796044,-12.625,38.875,8.6875
292.0,9.27734375,-8.11767578125,5.55419921875,0.3075045014801477,-0.477309488204596,-0.8218024231696524,-21.625,35.75,14.1875
292.5,-19.83642578125,13.671875,-13.18359375,0.3239844965971862,-0.3986938077944273,-0.9750053407391585,-20.25,33.8125,11.75
293.0,-0.732421875,0.1220703125,-2.685546875,0.2222968230231635,-0.500137333292642,-0.8657490768150884,-19.5625,32.25,14.1875
293.5,0.06103515625,0.1220703125,-0.42724609375,0.1993469038972136,-0.4735251930295724,-0.8761253700369274,-18.5625,36.9375,13.75
294.0,-0.3662109375,-0.8544921875,-0.42724609375,0.2038636432996612,-0.4644917142246773,-0.868800927762688,-15.75,36.125,14.1875
294.5,-0.06103515625,-0.18310546875,0.0,0.2019104586931974,-0.4657124546037171,-0.8717307046723838,-15.75,38.125,12.5625
295.0,-0.1220703125,0.42724609375,-0.1220703125,0.2050843836787011,-0.4643696401867733,-0.8768578142643513,-16.125,35.4375,12.5625
295.5,0.244140625,0.06103515625,0.244140625,0.2070375682851649,-0.4654683065279091,-0.869899594103824,-16.125,36.125,12.1875
296.0,7.14111328125,6.7138671875,-2.25830078125,0.1777397991882076,-0.4619281594286935,-0.8774681844538713,-16.4375,36.125,13.0
296.5,26.0009765625,23.0712890625,-15.31982421875,0.2757652516251106,-0.4615619373149815,-0.8857692190313425,-16.75,35.0,13.75
297.0,24.2919921875,-13.5498046875,19.47021484375,0.1446577349162267,-0.5131992553483687,-0.8198492385631886,-16.4375,39.25,13.75
297.5,0.8544921875,-2.5634765625,-1.52587890625,0.1021759697256386,-0.5825373088778344,-0.8136234626300851,-15.75,36.125,10.25
298.0,-15.380859375,-5.7373046875,-12.939453125,0.3006683553575243,-0.478408154545732,-0.8739280373546556,-17.125,35.0,15.75
298.5,-10.986328125,-4.21142578125,1.52587890625,0.2891933957945494,-0.4187139500106814,-0.8434095278786584,-16.75,36.5625,12.9375
299.0,6.2255859375,-6.4697265625,9.765625,0.3131199072237312,-0.379894405957213,-0.8902859584337901,-15.75,36.9375,12.5625
299.5,13.24462890625,0.42724609375,26.4892578125,0.2000793481246376,-0.500259407330546,-0.8391369365520188,-18.5625,34.625,16.125
300.0,-2.13623046875,-1.5869140625,-5.37109375,0.2635578478347117,-0.5063631092257455,-0.8517105624561296,-18.5625,34.1875,15.375
300.5,-0.3662109375,0.244140625,0.0,0.2352366710409863,-0.4935453352458266,-0.8551286355174413,-17.8125,34.625,14.9375
301.0,-1.15966796875,-2.685546875,-1.28173828125,0.2164372692037721,-0.4945219275490585,-0.8530533768730735,-19.5625,36.125,17.3125
301.5,0.3662109375,-0.18310546875,-0.8544921875,0.2105777153843806,-0.478530228583636,-0.8572038941618091,-18.1875,34.625,17.3125
302.0,0.91552734375,0.54931640625,-0.30517578125,0.2139957884456923,-0.4852443006683553,-0.8594012268440809,-18.1875,35.0,14.5625
302.5,0.3662109375,0.18310546875,-0.06103515625,0.2100894192327646,-0.4796288949247719,-0.8639179662465285,-18.5625,34.1875,18.5
303.0,-0.30517578125,-0.30517578125,-0.9765625,0.217047639393292,-0.4797509689626759,-0.8623310037537767,-17.125,36.125,19.6875
303.5,-0.48828125,0.18310546875,0.0,0.206060975981933,-0.4729148228400525,-0.8683126316110721,-18.5625,33.4375,15.75
304.0,0.244140625,0.30517578125,-2.3193359375,0.2110660115359965,-0.4734031189916684,-0.8707541123691519,-20.25,35.4375,16.125
304.5,0.06103515625,-0.1220703125,0.18310546875,0.2086245307779168,-0.467055269020661,-0.8672139652699362,-18.5625,33.8125,17.6875
305.0,-13.00048828125,-11.04736328125,-3.0517578125,0.2644123661000396,-0.4587542344431898,-0.8708761864070559,-19.5625,36.125,14.9375
305.5,0.3662109375,0.1220703125,1.15966796875,0.1980040894802698,-0.4101687673574022,-0.8971221045564135,-16.75,35.4375,14.1875
306.0,3.47900390625,0.54931640625,-1.5869140625,0.2194891201513718,-0.4539933469649342,-0.8790551469466231,-17.8125,35.4375,13.75
306.5,0.244140625,0.0,-1.64794921875,0.1594286935026093,-0.4261604663228248,-0.8918729209265419,-18.5625,36.5625,14.1875
307.0,0.48828125,-2.197265625,0.9765625,0.1903134250923185,-0.4303109836115604,-0.8918729209265419,-17.125,33.8125,15.75
307.5,-0.1220703125,-1.953125,-1.3427734375,0.1748100222785119,-0.4149296548356578,-0.8987090670491653,-17.8125,33.8125,14.9375
308.0,-0.18310546875,0.9765625,-2.44140625,0.129398480178228,-0.4290902432325205,-0.9001739555040131,-18.1875,35.0,18.5
308.5,0.54931640625,-1.52587890625,-0.48828125,0.1825006866664632,-0.423474837488937,-0.8982207708975494,-19.1875,34.625,17.3125
309.0,1.46484375,-0.1220703125,1.5869140625,0.1984923856318857,-0.4176152836695456,-0.9046906949064608,-19.1875,33.8125,16.125
309.5,-1.220703125,1.220703125,2.5634765625,0.1879940183721427,-0.4107791375469222,-0.9063997314371166,-16.4375,34.625,14.1875
310.0,0.0,0.18310546875,-4.45556640625,0.1643116550187688,-0.4199346903897213,-0.9107943968016602,-17.5,36.5625,13.75
310.5,0.48828125,0.54931640625,-2.01416015625,0.1927549058503982,-0.4329966124454482,-0.901760917996765,-18.5625,36.125,18.5
311.0,-0.3662109375,0.244140625,-0.9765625,0.1904354991302224,-0.4290902432325205,-0.8995635853144932,-17.8125,35.0,18.5
311.5,0.8544921875,2.685546875,6.103515625,0.2071596423230689,-0.4066286202581866,-0.8999298074282052,-18.875,34.625,17.6875
312.0,-1.03759765625,-2.50244140625,-3.72314453125,0.1721243934446241,-0.4146855067598498,-0.8984649189733573,-13.9375,38.875,11.4375
312.5,1.77001953125,-0.48828125,-4.08935546875,0.1906796472060304,-0.4511856440931425,-0.8838160344248787,-25.1875,34.1875,13.375
313.0,-0.42724609375,-0.3662109375,0.42724609375,0.1889706106753746,-0.434827723014008,-0.8954130680257576,-21.3125,35.0,11.4375
313.5,0.06103515625,0.3662109375,-0.732421875,0.1988586077455977,-0.4416638691366313,-0.8923612170781579,-13.3125,40.0625,6.75
314.0,-0.67138671875,-0.6103515625,-0.54931640625,0.1929990539262062,-0.4215216528824732,-0.8948026978362377,-16.125,34.1875,15.75
314.5,-1.15966796875,-2.9296875,-5.06591796875,0.1827448347422711,-0.4255500961333048,-0.902005066072573,-15.0625,34.1875,16.9375
315.0,1.220703125,2.38037109375,3.41796875,0.2186346018860439,-0.4104129154332102,-0.9027375102999968,-16.4375,33.0,16.125
315.5,-0.732421875,-0.30517578125,-2.44140625,0.1822565385906552,-0.4282357249671926,-0.8976104007080294,-16.4375,35.75,18.0625
316.0,0.42724609375,0.0,2.25830078125,0.2148503067110202,-0.4305551316873683,-0.8923612170781579,-18.5625,35.4375,12.5625
316.5,-0.06103515625,1.220703125,0.67138671875,0.1906796472060304,-0.4111453596606341,-0.902249214148381,-11.5,38.875,13.75
317.0,-0.54931640625,-0.48828125,-1.0986328125,0.1790826136051515,-0.4231086153752251,-0.8988311410870693,-18.1875,34.625,12.1875
317.5,0.30517578125,-0.30517578125,1.03759765625,0.1879940183721427,-0.4211554307687613,-0.8993194372386852,-21.0,35.75,13.75
318.0,11.53564453125,6.591796875,-1.64794921875,0.1972716452528458,-0.3896603289895322,-0.8973662526322215,-14.6875,37.75,10.625
318.5,7.32421875,-5.43212890625,-0.06103515625,-0.0002441480758079,-0.5886410107730339,-0.7666249580370494,-19.9375,33.4375,18.0625
319.0,-1.5869140625,-0.18310546875,-21.54541015625,0.3435163426618244,-0.3613391521958067,-0.9884334849085972,-19.5625,36.5625,12.1875
319.5,30.45654296875,-2.50244140625,27.4658203125,0.3823358867152928,-0.6060975981933042,-0.8052003540147099,-19.9375,35.4375,11.4375
320.0,-3.11279296875,12.14599609375,-12.26806640625,0.1464888454847865,-0.6677449873348186,-0.7319559312723166,-14.3125,37.75,14.1875
320.5,-28.9306640625,-23.86474609375,3.47900390625,0.2265694143498031,-0.3352153080843532,-0.9443647572252571,-14.3125,36.5625,12.5625
321.0,-2.5634765625,23.01025390625,2.13623046875,0.140629291665395,-0.4688863795892208,-0.8777123325296793,-14.6875,36.9375,13.0
321.5,-1.89208984375,-1.64794921875,-2.25830078125,0.1441694387646107,-0.3892941068758201,-0.9188512833033234,-22.375,34.625,13.75
322.0,12.451171875,-10.68115234375,8.30078125,0.1212195196386608,-0.4276253547776726,-0.8749046296578875,-19.1875,36.125,9.875
322.5,32.2265625,11.474609375,26.55029296875,0.2523270363475448,-0.511246070741905,-0.8919949949644459,-13.9375,38.125,12.5625
323.0,0.244140625,-0.67138671875,4.2724609375,0.0987578966643269,-0.6008484145634327,-0.7780999176000244,-15.375,36.9375,11.0625
323.5,-30.82275390625,12.63427734375,-61.5234375,0.1655323953978087,-0.5352946562089907,-0.8211920529801324,-22.375,35.0,11.4375
324.0,3.23486328125,6.2255859375,14.5263671875,0.3523056733909115,-0.4383678701132236,-0.8443861201818903,-20.625,35.75,14.1875
324.5,-0.54931640625,0.244140625,-2.25830078125,0.151371807000946,-0.521744438001648,-0.8602557451094088,-19.1875,36.9375,13.375
325.0,-13.85498046875,9.21630859375,-21.17919921875,0.2437818536942655,-0.4524063844721824,-0.9104281746879482,-16.75,37.75,12.5625
325.5,2.38037109375,-7.75146484375,1.77001953125,0.3287453840754417,-0.4629047517319254,-0.8557390057069613,-22.75,34.625,11.4375
326.0,11.23046875,-1.64794921875,6.65283203125,0.3060396130252998,-0.4818262276070437,-0.8432874538407544,-21.3125,35.0,13.75
326.5,-5.18798828125,2.8076171875,0.48828125,0.2013000885036774,-0.5494552446058535,-0.8694112979522081,-15.0625,37.75,13.375
327.0,4.21142578125,-10.07080078125,3.23486328125,0.1540574358348338,-0.5068514053773614,-0.8447523422956023,-15.375,37.75,12.1875
327.5,1.77001953125,9.09423828125,-3.84521484375,0.0769066438795129,-0.5581225012970367,-0.804467909787286,-20.625,36.9375,12.1875
328.0,-3.72314453125,14.404296875,-30.09033203125,0.3333841975157933,-0.4069948423718985,-0.8324228644672994,-22.0,33.0,15.75
328.5,5.4931640625,-12.63427734375,15.2587890625,0.2324289681691946,-0.5227210303048799,-0.8263191625721,-21.0,35.75,14.5625
329.0,6.28662109375,-10.1318359375,11.474609375,0.1538132877590258,-0.5682546464430677,-0.8174077578051088,-22.0,35.4375,11.75
329.5,1.708984375,-6.16455078125,0.79345703125,0.1114535966063417,-0.5852229377117222,-0.7872554704428236,-19.9375,36.5625,9.875
330.0,-7.75146484375,25.2685546875,-54.443359375,0.2016663106173894,-0.5372478408154546,-0.8374279000213629,-16.75,36.125,11.75
330.5,-0.732421875,1.953125,0.9765625,0.3139744254890591,-0.4619281594286935,-0.8325449385052034,-17.5,37.3125,15.375
331.0,8.23974609375,1.77001953125,10.8642578125,0.3115329447309793,-0.5144199957274087,-0.8167973876155888,-17.8125,36.5625,14.1875
331.5,2.8076171875,-9.3994140625,6.04248046875,0.1818903164769432,-0.5597094637897885,-0.8086184270760216,-21.625,35.0,13.75
332.0,-29.052734375,0.9765625,-26.9775390625,0.2293771172215949,-0.4648579363383892,-0.880153813287759,-20.625,36.5625,13.375
332.5,-1.0986328125,-0.67138671875,-0.06103515625,0.3081148716696676,-0.4229865413373211,-0.8634296700949126,-20.625,35.4375,12.1875
333.0,24.71923828125,-19.83642578125,38.87939453125,0.3006683553575243,-0.52211066011536,-0.8755149998474074,-18.875,37.75,12.9375
333.5,4.638671875,-5.2490234375,4.39453125,0.1044953764458143,-0.5705740531632435,-0.8163090914639729,-17.125,36.5625,9.125
334.0,-10.55908203125,15.44189453125,-16.845703125,0.1865291299172948,-0.5487228003784295,-0.7815179906613361,-18.1875,35.0,13.375
334.5,-0.79345703125,5.79833984375,-6.7138671875,0.3016449476607562,-0.4289681691946165,-0.8492690816980498,-18.1875,37.3125,14.9375
335.0,5.06591796875,-1.52587890625,4.8828125,0.3243507187108981,-0.4449598681600391,-0.8419446394238106,-14.3125,38.125,12.5625
335.5,1.5869140625,-1.40380859375,2.44140625,0.3277687917722098,-0.4394665364543595,-0.8598895229956969,-13.3125,38.125,16.125
336.0,1.953125,-0.48828125,2.74658203125,0.3170262764366588,-0.4448377941221351,-0.8541520432142095,-10.125,37.75,9.125
336.5,6.2255859375,-9.33837890625,9.1552734375,0.3191015350810266,-0.4709616382335886,-0.8573259681997131,-19.1875,39.25,12.1875
337.0,2.86865234375,-3.72314453125,2.9296875,0.1801812799462874,-0.5238196966460158,-0.8434095278786584,-23.375,34.625,14.9375
337.5,-0.91552734375,2.5634765625,-1.3427734375,0.2109439374980926,-0.543107394634846,-0.8347422711874752,-21.0,35.0,14.5625
338.0,-3.96728515625,9.3994140625,-17.39501953125,0.2811365092928861,-0.4990386669515061,-0.8609881893368327,-16.4375,37.75,12.5625
338.5,0.42724609375,8.9111328125,5.0048828125,0.3056733909115878,-0.4428846095156712,-0.8379161961729789,-19.1875,35.4375,13.75
339.0,1.89208984375,-0.3662109375,1.77001953125,0.3129978331858272,-0.4809717093417157,-0.8371837519455549,-20.625,37.3125,14.1875
339.5,3.47900390625,2.25830078125,4.150390625,0.2917569505905331,-0.4928128910184026,-0.8390148625141148,-22.0,35.4375,11.4375
340.0,0.9765625,0.6103515625,2.3193359375,0.2760093997009186,-0.5024567400128178,-0.8310800500503556,-20.25,35.0,12.9375
340.5,0.18310546875,-0.244140625,0.18310546875,0.2761314737388226,-0.4983062227240821,-0.8373058259834589,-19.1875,34.1875,11.75
341.0,-2.0751953125,-1.5869140625,-2.01416015625,0.2804040650654622,-0.4873195593127232,-0.8353526413769952,-20.625,35.0,13.375
341.5,13.7939453125,-28.1982421875,28.076171875,0.2439039277321695,-0.5173497726371044,-0.8679464094973601,-18.875,36.9375,11.0625
342.0,8.1787109375,1.64794921875,4.57763671875,0.0786156804101687,-0.5945005645924253,-0.8222907193212683,-15.75,38.125,12.1875
342.5,9.521484375,-10.55908203125,17.4560546875,0.1429486983855708,-0.5799737540818506,-0.8148442030091251,-16.75,37.75,15.75
343.0,-0.30517578125,8.11767578125,-8.85009765625,0.0371105075228125,-0.6389355143894773,-0.761375774407178,-16.125,35.75,13.75
343.5,-16.2353515625,3.23486328125,-29.541015625,0.2265694143498031,-0.4574114200262459,-0.8410901211584826,-15.375,38.875,12.9375
344.0,-3.41796875,0.30517578125,-2.197265625,0.3442487868892483,-0.3968626972258675,-0.8930936613055819,-16.4375,35.4375,10.625
344.5,7.75146484375,-0.244140625,3.662109375,0.3006683553575243,-0.4155400250251778,-0.8657490768150884,-17.5,35.0,12.5625
345.0,-2.0751953125,1.15966796875,-1.953125,0.173711355937376,-0.5453047273171179,-0.8291268654438917,-16.4375,37.75,9.875
345.5,-8.4228515625,7.50732421875,-10.3759765625,0.2679525131992553,-0.5040437025055696,-0.8463393047883542,-15.75,36.5625,13.375
346.0,-1.953125,2.01416015625,-3.11279296875,0.2796716208380382,-0.4975737784966582,-0.8338877529221472,-16.75,36.5625,10.25
346.5,-1.52587890625,1.46484375,-2.01416015625,0.2926114688558611,-0.456678975798822,-0.8513443403424177,-16.75,37.3125,12.1875
347.0,-2.197265625,0.18310546875,-3.47900390625,0.3208105716116824,-0.445081942197943,-0.8559831537827692,-16.75,34.625,10.25
347.5,1.03759765625,-0.67138671875,0.42724609375,0.3277687917722098,-0.4361705374309518,-0.8520767845698416,-17.5,37.75,12.9375
348.0,1.0986328125,1.15966796875,-1.28173828125,0.3117770928067873,-0.4524063844721824,-0.8563493758964812,-17.125,36.5625,11.75
348.5,7.01904296875,-10.80322265625,13.24462890625,0.3026215399639881,-0.5005035554063539,-0.8465834528641621,-15.375,36.9375,12.5625
349.0,2.197265625,-2.86865234375,3.90625,0.1751762443922238,-0.5316324350718711,-0.8194830164494766,-18.5625,38.875,11.0625
349.5,-1.64794921875,1.0986328125,-0.732421875,0.2309640797143467,-0.5459150975066378,-0.8280281991027558,-16.75,38.875,11.75
350.0,-0.30517578125,-0.1220703125,-0.42724609375,0.1894589068269905,-0.5461592455824458,-0.8208258308664205,-17.125,39.25,9.5
350.5,0.06103515625,2.13623046875,-0.9765625,0.1995910519730216,-0.532731101413007,-0.8283944212164678,-18.875,35.75,12.1875
351.0,-0.1220703125,-0.3662109375,-0.06103515625,0.2054506057924131,-0.5363933225501266,-0.8279061250648518,-20.625,34.625,14.1875
351.5,0.48828125,0.30517578125,0.06103515625,0.2067934202093569,-0.531998657185583,-0.8320566423535875,-21.3125,36.125,14.1875
352.0,0.48828125,0.0,0.0,0.2092349009674367,-0.5330973235267189,-0.8337656788842432,-15.75,37.3125,11.0625
352.5,-0.9765625,-0.244140625,-1.220703125,0.2100894192327646,-0.5299233985412153,-0.8330332346568193,-17.8125,39.6875,11.0625
353.0,-0.06103515625,-0.48828125,0.1220703125,0.2158268990142521,-0.5235755485702078,-0.836939603869747,-14.3125,38.5,10.625
353.5,-0.18310546875,0.3662109375,-0.3662109375,0.2158268990142521,-0.5308999908444472,-0.836329233680227,-14.6875,38.875,14.5625
354.0,0.18310546875,-0.9765625,-0.48828125,0.2144840845973082,-0.522476882229072,-0.8344981231116673,-14.3125,37.75,13.0
354.5,-0.67138671875,1.03759765625,0.1220703125,0.2242500076296273,-0.521866512039552,-0.8371837519455549,-16.125,36.9375,12.9375
355.0,0.244140625,2.13623046875,0.0,0.228156376842555,-0.5124668111209448,-0.8362071596423231,-16.4375,36.5625,14.5625
355.5,-0.9765625,3.47900390625,-1.77001953125,0.2352366710409863,-0.5142979216895047,-0.8354747154148991,-20.625,31.5,15.75
356.0,1.3427734375,-1.0986328125,1.5869140625,0.2459791863765373,-0.4987945188756981,-0.8442640461439863,-17.8125,36.9375,14.5625
356.5,2.3193359375,2.62451171875,-1.5869140625,0.1638233588671529,-0.5736259041108432,-0.8098391674550615,-16.4375,37.3125,11.4375
357.0,2.38037109375,-2.197265625,0.91552734375,0.1397747734000671,-0.586321604052858,-0.814233832819605,-21.625,33.0,16.9375
357.5,-5.7373046875,9.70458984375,-3.84521484375,0.1478316599017304,-0.5924253059480575,-0.8170415356913968,-19.9375,33.8125,14.5625
358.0,-5.31005859375,10.07080078125,-14.58740234375,0.2639240699484237,-0.4244514297921689,-0.815820795312357,-22.0,31.875,17.6875
358.5,-2.62451171875,-4.33349609375,-1.220703125,0.2728354747154149,-0.4354380932035279,-0.8307138279366436,-21.625,32.6875,19.6875
359.0,5.79833984375,-9.765625,12.39013671875,0.3048188726462599,-0.4768211920529801,-0.8573259681997131,-23.375,32.25,17.6875
359.5,3.96728515625,-5.615234375,5.79833984375,0.1356242561113315,-0.5479903561510056,-0.8456068605609302,-21.625,31.5,18.875
360.0,0.6103515625,1.64794921875,-0.8544921875,0.1352580339976195,-0.5598315378276925,-0.8203375347148045,-24.4375,32.25,18.875
360.5,-0.42724609375,-0.1220703125,-0.1220703125,0.1427045503097628,-0.5580004272591327,-0.8320566423535875,-21.625,31.0625,14.9375
361.0,0.244140625,-0.6103515625,0.42724609375,0.1434369945371868,-0.5610522782067324,-0.8320566423535875,-21.625,31.5,19.25
361.5,-9.94873046875,7.75146484375,-4.5166015625,0.1507614368114261,-0.5455488753929258,-0.8186284981841487,-21.3125,32.6875,14.1875
362.0,1.220703125,2.685546875,-2.0751953125,0.2226630451368755,-0.5078279976805933,-0.8535416730246894,-23.0625,31.875,15.75
362.5,-14.404296875,-5.0048828125,-11.962890625,0.2285225989562669,-0.4651020844141972,-0.8752708517715995,-21.3125,32.6875,14.9375
363.0,2.8076171875,-5.7373046875,6.591796875,0.3857539597766045,-0.3654896694845423,-0.9188512833033234,-23.0625,31.875,18.0625
363.5,9.58251953125,-13.12255859375,4.69970703125,0.1529587694936979,-0.5168614764854884,-0.8717307046723838,-23.375,31.875,15.375
364.0,-14.70947265625,11.71875,0.3662109375,0.261238441114536,-0.5006256294442579,-0.9316690572832422,-23.375,31.0625,13.375
364.5,-8.97216796875,-2.5634765625,-8.85009765625,0.2515945921201208,-0.3859981078524125,-0.8692892239143041,-23.375,32.25,15.75
365.0,-1.3427734375,0.67138671875,0.6103515625,0.3082369457075716,-0.3465681936094241,-0.8990752891628773,-23.0625,33.4375,15.75
365.5,-0.3662109375,0.67138671875,-2.3193359375,0.3097018341624195,-0.3673207800531022,-0.8857692190313425,-13.9375,35.75,18.5
366.0,1.64794921875,-1.3427734375,2.99072265625,0.3230079042939542,-0.3404644917142246,-0.8879665517136143,-16.125,36.125,13.75
366.5,-0.06103515625,-0.8544921875,-1.46484375,0.3238624225592822,-0.358897671437727,-0.8954130680257576,-22.75,32.6875,15.75
367.0,-0.1220703125,0.06103515625,0.18310546875,0.3064058351390118,-0.3515732291634876,-0.8961455122531815,-17.5,35.0,14.9375
367.5,0.91552734375,0.0,-1.15966796875,0.3129978331858272,-0.3536484878078554,-0.8957792901394696,-16.75,38.125,15.375
368.0,0.3662109375,0.3662109375,-0.67138671875,0.3158055360576189,-0.3549913022247993,-0.8954130680257576,-21.625,35.0,14.9375
368.5,0.42724609375,-0.06103515625,-0.1220703125,0.3173924985503707,-0.3537705618457594,-0.89089632862331,-20.625,33.8125,14.9375
369.0,0.06103515625,0.1220703125,0.06103515625,0.3136082033753471,-0.3553575243385113,-0.8899197363200781,-22.0,33.4375,15.375
369.5,0.1220703125,-0.54931640625,-1.0986328125,0.3237403485213782,-0.358897671437727,-0.8917508468886379,-20.625,33.4375,17.3125
370.0,0.1220703125,0.1220703125,0.18310546875,0.3209326456495864,-0.3505966368602558,-0.8932157353434859,-22.0,34.1875,16.125
370.5,0.30517578125,-0.54931640625,-0.8544921875,0.3214209418012024,-0.3485213782158879,-0.8943144016846217,-22.75,31.875,15.75
371.0,-0.3662109375,0.244140625,-0.3662109375,0.3278908658101138,-0.3515732291634876,-0.8966338084047976,-20.25,32.6875,14.9375
371.5,0.1220703125,-0.30517578125,-0.9765625,0.3180028687398907,-0.3598742637409589,-0.8937040314951018,-23.0625,32.25,17.3125
372.0,0.0,0.54931640625,-0.1220703125,0.3266701254310739,-0.3491317484054079,-0.8896755882442702,-20.25,33.0,16.5625
372.5,1.89208984375,-1.953125,4.2724609375,0.3097018341624195,-0.3601184118167668,-0.8889431440168463,-22.0,31.875,18.875
373.0,23.86474609375,-8.85009765625,20.263671875,0.0933866389965514,-0.4834131900997955,-0.8484145634327219,-23.375,34.625,13.75
373.5,-5.37109375,6.2255859375,-17.9443359375,0.1440473647267067,-0.4644917142246773,-0.911648915066988,-22.375,31.875,18.0625
374.0,1.3427734375,14.34326171875,-14.16015625,0.3725699636829737,-0.4362926114688558,-0.8784447767571032,-17.125,34.1875,17.3125
374.5,10.986328125,-20.01953125,15.80810546875,0.1556443983275856,-0.456434827723014,-0.8473158970915861,-17.125,35.75,16.9375
375.0,0.79345703125,-0.91552734375,5.615234375,0.0885036774803918,-0.4911038544877468,-0.8825952940458388,-18.5625,38.125,11.75
375.5,-2.25830078125,7.14111328125,-9.46044921875,0.2793053987243263,-0.4076052125614185,-0.8968779564806055,-13.9375,39.25,10.625
376.0,-3.11279296875,3.41796875,-0.8544921875,0.2627033295693838,-0.3739127780999176,-0.8876003295999023,-22.0,31.5,15.375
376.5,-0.3662109375,1.220703125,-1.40380859375,0.2733237708670308,-0.3596301156651509,-0.8982207708975494,-22.75,32.25,16.9375
377.0,-0.18310546875,-0.9765625,-0.3662109375,0.2974944303720206,-0.3625598925748466,-0.8989532151249733,-19.5625,32.6875,16.9375
377.5,0.0,0.06103515625,-1.64794921875,0.303964354380932,-0.3629261146885586,-0.8945585497604297,-22.0,31.875,14.5625
378.0,0.54931640625,-0.18310546875,-0.79345703125,0.303476058229316,-0.3673207800531022,-0.8973662526322215,-23.75,32.25,14.1875
378.5,0.244140625,1.03759765625,1.3427734375,0.3018890957365642,-0.3609729300820948,-0.8951689199499496,-23.0625,33.4375,19.25
379.0,-0.18310546875,0.67138671875,0.48828125,0.3066499832148198,-0.3542588579973754,-0.9013946958830532,-24.4375,31.0625,14.5625
379.5,-0.9765625,-0.48828125,-0.42724609375,0.2951750236518448,-0.3681752983184301,-0.891018402661214,-23.375,32.25,15.75
380.0,0.91552734375,0.79345703125,-0.67138671875,0.3070162053285317,-0.3497421185949278,-0.8962675862910855,-25.5,33.4375,13.75
380.5,1.03759765625,-0.06103515625,0.8544921875,0.3017670216986602,-0.3447370830408642,-0.8991973632007813,-17.125,34.1875,15.75
381.0,-0.18310546875,1.77001953125,0.42724609375,0.2983489486373485,-0.3682973723563341,-0.8821069978942229,-15.0625,36.5625,13.75
381.5,12.451171875,-33.63037109375,21.240234375,0.1342814416943876,-0.3905148472548601,-0.8972441785943175,-23.75,34.625,17.6875
382.0,-1.3427734375,2.9296875,-8.23974609375,0.1366008484145634,-0.4201788384655293,-0.933378093813898,-23.0625,33.8125,16.5625
382.5,20.5078125,0.54931640625,25.146484375,0.3116550187688833,-0.5183263649403363,-0.8432874538407544,-22.375,35.0,16.125
383.0,10.31494140625,-1.28173828125,4.638671875,0.1247596667378765,-0.5924253059480575,-0.8271736808374279,-21.625,33.0,18.5
383.5,-32.89794921875,7.568359375,-36.19384765625,0.1726126895962401,-0.522232734153264,-0.8413342692342906,-23.75,34.625,14.5625
384.0,-6.53076171875,-6.7138671875,2.5634765625,0.2867519150364696,-0.3499862666707358,-0.8764915921506393,-23.375,33.0,15.375
384.5,-2.25830078125,1.03759765625,-2.8076171875,0.3088473158970916,-0.3536484878078554,-0.8966338084047976,-20.625,35.4375,14.5625
385.0,-0.9765625,0.06103515625,-0.3662109375,0.3173924985503707,-0.3631702627643666,-0.8917508468886379,-12.625,39.25,11.0625
385.5,0.244140625,0.6103515625,-2.5634765625,0.3333841975157933,-0.3595080416272469,-0.8867458113345744,-13.6875,39.6875,9.5
386.0,-0.6103515625,0.42724609375,0.06103515625,0.3404644917142246,-0.3514511551255836,-0.8871120334482864,-17.8125,34.625,12.5625
386.5,-0.244140625,0.30517578125,-1.40380859375,0.3463240455336161,-0.3531601916562395,-0.8867458113345744,-23.375,30.375,16.1875
387.0,-0.06103515625,0.18310546875,-0.732421875,0.357799005096591,-0.3513290810876797,-0.8822290719321269,-21.625,33.4375,15.75
387.5,0.79345703125,-0.48828125,-0.48828125,0.3502304147465437,-0.3557237464522232,-0.8792992950224311,-21.0,33.4375,16.125
388.0,0.79345703125,-1.52587890625,3.23486328125,0.3720816675313577,-0.3480330820642719,-0.8885769219031342,-23.75,34.1875,14.1875
388.5,5.9814453125,-5.31005859375,9.033203125,0.0773949400311288,-0.5136875514999848,-0.8336436048463393,-23.75,33.4375,13.375
389.0,-7.14111328125,10.68115234375,-25.634765625,0.1562547685171056,-0.445204016235847,-0.8512222663045137,-23.375,30.6875,14.5625
389.5,-1.220703125,-3.96728515625,-2.50244140625,0.3266701254310739,-0.3657338175603503,-0.8838160344248787,-22.0,35.0,16.9375
390.0,-0.244140625,1.0986328125,-4.45556640625,0.337290566728721,-0.3991821039460432,-0.8718527787102878,-13.9375,36.5625,15.375
390.5,0.244140625,-1.28173828125,-1.40380859375,0.3379009369182409,-0.3968626972258675,-0.8709982604449599,-18.875,34.625,15.375
391.0,0.91552734375,0.67138671875,0.1220703125,0.3331400494399854,-0.3888058107242042,-0.8724631488998077,-22.0,34.1875,16.5625
391.5,0.42724609375,0.1220703125,-0.30517578125,0.3358256782738731,-0.3869747001556444,-0.8750267036957915,-22.0,33.0,15.75
392.0,1.220703125,-1.77001953125,1.64794921875,0.3310647907956175,-0.3863643299661244,-0.8767357402264473,-21.625,33.8125,16.9375
392.5,12.8173828125,-19.53125,23.62060546875,0.2255928220465712,-0.4299447614978484,-0.8869899594103824,-21.625,33.8125,13.75
393.0,8.36181640625,-8.7890625,10.1318359375,0.0677510910367137,-0.5457930234687338,-0.8136234626300851,-21.3125,31.5,16.5625
393.5,-10.68115234375,3.96728515625,-10.07080078125,0.086794640949736,-0.6097598193304239,-0.7685781426435133,-20.625,33.8125,16.9375
394.0,-28.74755859375,4.638671875,-30.70068359375,0.2568437757499924,-0.4403210547196874,-0.9294717246009704,-23.375,31.0625,16.9375
394.5,4.0283203125,7.4462890625,-4.8828125,0.3350932340464492,-0.3591418195135349,-0.9079866939298684,-23.375,32.6875,16.5625
395.0,2.25830078125,2.8076171875,1.77001953125,0.3087252418591876,-0.3737907040620136,-0.881252479628895,-22.75,33.8125,14.1875
395.5,-0.8544921875,0.91552734375,-2.38037109375,0.3325296792504654,-0.3750114444410535,-0.8791772209845271,-15.375,38.125,10.625
396.0,0.30517578125,0.48828125,0.1220703125,0.336802270577105,-0.3547471541489914,-0.8906521805475021,-13.3125,39.6875,11.4375
396.5,0.42724609375,0.06103515625,-0.91552734375,0.3379009369182409,-0.3547471541489914,-0.8872341074861904,-18.5625,37.3125,12.9375
397.0,0.67138671875,0.3662109375,-0.79345703125,0.3437604907376324,-0.3483993041779839,-0.8871120334482864,-23.75,33.8125,13.75
397.5,2.685546875,-12.8173828125,13.0615234375,0.3348490859706411,-0.3534043397320475,-0.9098178044984284,-22.375,32.6875,14.9375
398.0,-10.07080078125,-1.15966796875,9.8876953125,0.1317178868984038,-0.4393444624164556,-0.912259285256508,-24.0625,33.0,18.5
398.5,3.5400390625,21.3623046875,-18.5546875,0.2235175634022034,-0.4423963133640552,-0.8987090670491653,-23.0625,32.6875,17.3125
399.0,0.42724609375,2.9296875,-6.4697265625,0.2983489486373485,-0.4215216528824732,-0.8633075960570086,-23.0625,33.0,15.375
399.5,-1.52587890625,2.01416015625,-4.69970703125,0.2761314737388226,-0.3866084780419324,-0.8821069978942229,-23.0625,33.8125,17.3125
400.0,-0.732421875,0.18310546875,-1.03759765625,0.3136082033753471,-0.3874629963072603,-0.8858912930692465,-24.4375,31.0625,17.6875
400.5,0.1220703125,0.67138671875,-1.03759765625,0.3128757591479232,-0.3834345530564287,-0.8866237372966704,-18.875,33.0,16.1875
401.0,0.244140625,-0.06103515625,-1.03759765625,0.3067720572527238,-0.3895382549516281,-0.8855250709555346,-13.3125,38.5,16.9375
401.5,0.1220703125,-1.52587890625,1.953125,0.3106784264656514,-0.391247291482284,-0.8873561815240943,-13.9375,37.3125,12.9375
402.0,-0.1220703125,-0.30517578125,-0.06103515625,0.2951750236518448,-0.3905148472548601,-0.8827173680837428,-16.4375,37.75,11.75
402.5,-0.3662109375,0.42724609375,-0.6103515625,0.3094576860866115,-0.3814813684499649,-0.8876003295999023,-17.8125,37.3125,12.9375
403.0,0.06103515625,-0.06103515625,0.42724609375,0.3105563524277474,-0.3783074434644612,-0.8868678853724784,-18.1875,37.3125,10.625
403.5,20.69091796875,-11.71875,27.28271484375,0.1938535721915341,-0.5407879879146702,-0.8287606433301797,-17.5,38.875,8.3125
404.0,7.6904296875,-1.77001953125,3.23486328125,0.0640888698995941,-0.6113467818231757,-0.793359172338023,-18.1875,37.75,4.375
404.5,-18.98193359375,22.15576171875,-19.6533203125,0.0451673940244758,-0.6107364116336558,-0.7437971129490035,-9.125,38.875,7.9375
405.0,2.62451171875,8.6669921875,-18.310546875,0.2952970976897488,-0.3858760338145085,-0.8634296700949126,-9.125,39.25,7.125
405.5,0.0,5.31005859375,-4.5166015625,0.3231299783318582,-0.4036988433484909,-0.880275887325663,-20.625,37.75,11.75
406.0,-0.91552734375,1.64794921875,-1.46484375,0.3281350138859218,-0.3780632953886532,-0.8840601825006866,-21.3125,33.8125,11.0625
406.5,0.0,-0.244140625,-1.40380859375,0.3388775292214728,-0.3748893704031495,-0.8786889248329112,-24.8125,33.8125,14.9375
407.0,-0.30517578125,0.1220703125,-0.06103515625,0.3326517532883694,-0.3730582598345897,-0.881374553666799,-27.9375,31.5,14.9375
407.5,0.0,0.1220703125,-0.48828125,0.3404644917142246,-0.36939603869747,-0.8839381084627826,-30.375,24.0625,13.375
408.0,0.42724609375,0.0,-0.1220703125,0.3376567888424329,-0.3728141117587817,-0.8775902584917753,-31.4375,25.625,16.9375
408.5,1.46484375,-7.14111328125,10.19287109375,0.3388775292214728,-0.3870967741935484,-0.8766136661885433,-31.0625,22.125,14.9375
409.0,14.09912109375,-13.916015625,19.47021484375,0.0993682668538468,-0.4736472670674764,-0.8719748527481918,-31.0625,23.3125,16.5625
409.5,-3.0517578125,7.99560546875,-6.77490234375,0.0198980681783501,-0.488662373729667,-0.8493911557359538,-31.0625,25.1875,14.9375
410.0,-0.3662109375,5.55419921875,-5.55419921875,0.1093783379619739,-0.4740134891811884,-0.8861354411450545,-30.6875,24.875,16.125
410.5,3.23486328125,4.39453125,-7.32421875,0.2027649769585253,-0.5175939207129123,-0.8495132297738578,-33.5,23.3125,18.875
411.0,22.88818359375,-12.8173828125,-5.55419921875,0.195318460646382,-0.4741355632190924,-0.8435316019165624,-32.125,22.875,15.75
411.5,9.765625,-10.7421875,3.7841796875,0.1644337290566728,-0.6158635212256234,-0.7810296945097202,-32.125,24.5,16.125
412.0,1.40380859375,-0.9765625,0.54931640625,0.1265907773064363,-0.6369823297830134,-0.7663808099612415,-31.4375,23.3125,17.6875
412.5,3.0517578125,-4.08935546875,32.40966796875,0.0889919736320078,-0.6617633594775231,-0.7352519302957243,-31.75,22.5,15.375
413.0,0.0,-2.197265625,0.91552734375,0.0147709585863826,-0.7027802362132634,-0.7370830408642842,-26.875,31.0625,17.3125
413.5,-17.51708984375,4.08935546875,-12.5732421875,0.0340586565752128,-0.6772667622913296,-0.749778740806299,-19.1875,35.4375,12.9375
414.0,-15.380859375,-4.57763671875,-25.0244140625,0.3127536851100192,-0.412610248115482,-0.9415570543534654,-22.375,31.875,14.1875
414.5,-0.8544921875,-3.173828125,-0.9765625,0.2979827265236366,-0.4466689046906949,-0.8548844874416334,-26.1875,31.875,14.1875
415.0,5.31005859375,-9.3994140625,-31.982421875,0.2927335428937651,-0.4116336558122501,-0.8620868556779687,-29.6875,27.625,14.5625
415.5,8.544921875,-11.41357421875,-21.1181640625,0.3086031678212836,-0.4255500961333048,-0.8512222663045137,-30.375,27.1875,17.3125
416.0,5.859375,-10.55908203125,-10.7421875,0.3048188726462599,-0.4708395641956847,-0.8430433057649465,-30.6875,26.4375,11.4375
416.5,1.0986328125,1.8310546875,-4.150390625,0.3137302774132511,-0.4445936460463271,-0.8528092287972655,-34.9375,24.875,16.5625
417.0,-0.1220703125,-0.30517578125,-2.685546875,0.3295999023407697,-0.4222540971098971,-0.8639179662465285,-33.5,27.625,13.375
417.5,0.30517578125,-0.42724609375,-1.40380859375,0.3209326456495864,-0.4161503952146977,-0.8683126316110721,-30.6875,26.8125,12.9375
418.0,0.18310546875,0.48828125,-0.18310546875,0.325205236976226,-0.4182256538590655,-0.8642841883602405,-32.8125,24.5,13.75
418.5,0.732421875,-0.18310546875,-0.6103515625,0.3304544206060976,-0.4187139500106814,-0.8626972258674886,-31.4375,26.0,15.75
419.0,-0.48828125,-0.48828125,-0.1220703125,0.3227637562181463,-0.4165166173284096,-0.8574480422376172,-31.0625,24.0625,16.5625
419.5,0.0,-0.1220703125,-0.732421875,0.3265480513931699,-0.4229865413373211,-0.8604998931852168,-27.625,32.25,19.25
420.0,2.62451171875,-6.89697265625,-0.91552734375,0.2838221381267738,-0.4355601672414319,-0.8641621143223365,-17.5,38.875,16.9375
420.5,5.7373046875,-2.9296875,3.47900390625,0.282723471785638,-0.4360484633930478,-0.8615985595263528,-16.75,36.5625,11.75
421.0,-3.96728515625,2.197265625,-0.18310546875,0.2850428785058138,-0.4469130527665029,-0.8795434430982391,-19.1875,36.125,9.875
421.5,0.6103515625,9.6435546875,51.33056640625,0.1854304635761589,-0.5011139255958739,-0.8557390057069613,-14.3125,38.5,11.0625
422.0,-19.775390625,17.76123046875,18.61572265625,0.1877498702963347,-0.511368144779809,-0.8752708517715995,-15.0625,36.125,14.9375
422.5,-9.70458984375,26.9775390625,-36.7431640625,0.3276467177343058,-0.521866512039552,-0.934720908230842,-15.375,36.9375,14.9375
423.0,-3.662109375,0.06103515625,-7.4462890625,0.2756431775872066,-0.3995483260597552,-0.8656270027771844,-13.9375,37.3125,11.4375
423.5,7.75146484375,-5.55419921875,-13.48876953125,0.3626819666127506,-0.4399548326059755,-0.836329233680227,-16.4375,37.75,12.5625
424.0,2.86865234375,-14.46533203125,-1.220703125,0.3225196081423383,-0.4046754356517227,-0.8719748527481918,-21.0,34.625,14.9375
424.5,-0.8544921875,4.94384765625,-4.08935546875,0.347422711874752,-0.4165166173284096,-0.8467055269020661,-20.625,36.125,14.1875
425.0,-0.1220703125,-1.28173828125,-0.06103515625,0.3592638935514389,-0.4155400250251778,-0.8491470076601458,-26.1875,32.6875,11.4375
425.5,1.03759765625,-1.220703125,-0.9765625,0.3570665608691671,-0.41224402600177,-0.8471938230536821,-25.5,29.5625,10.25
426.0,-0.54931640625,-0.06103515625,0.244140625,0.3487655262916959,-0.4148075807977538,-0.8524430066835536,-26.1875,32.25,12.9375
426.5,-0.06103515625,0.30517578125,-0.244140625,0.3505966368602558,-0.413342692342906,-0.8546403393658254,-19.9375,38.125,9.875
427.0,0.0,-0.67138671875,0.244140625,0.3507187108981597,-0.4189580980864894,-0.8551286355174413,-16.75,38.5,9.125
427.5,0.244140625,0.18310546875,0.42724609375,0.3510849330118717,-0.4154179509872738,-0.8572038941618091,-20.25,38.875,12.1875
428.0,-13.85498046875,14.34326171875,36.4990234375,0.3343607898190252,-0.455946531571398,-0.8603778191473128,-25.8125,31.0625,16.9375
428.5,5.126953125,12.51220703125,32.04345703125,0.1530808435316019,-0.5135654774620807,-0.858912930692465,-25.5,29.9375,14.5625
429.0,8.97216796875,30.45654296875,-2.9296875,0.1547898800622577,-0.5256508072145757,-0.8215582750938444,-24.8125,33.4375,13.75
429.5,-3.5400390625,18.12744140625,7.8125,0.445570238349559,-0.5053865169225135,-0.8001953184606464,-25.1875,30.6875,13.75
430.0,-4.2724609375,0.1220703125,8.7890625,0.4543595690786462,-0.488784447767571,-0.782738731040376,-25.8125,33.4375,12.1875
430.5,-6.7138671875,-1.708984375,5.859375,0.3745231482894375,-0.4427625354777673,-0.8307138279366436,-26.875,32.6875,14.5625
431.0,0.06103515625,2.13623046875,-0.18310546875,0.3719595934934537,-0.4419080172124393,-0.8381603442487869,-27.25,32.25,11.0625
431.5,0.732421875,1.5869140625,0.244140625,0.4072389904477065,-0.4521622363963744,-0.8127689443647572,-20.625,33.4375,17.3125
432.0,0.244140625,-3.5400390625,0.732421875,0.4295785393841365,-0.4412976470229194,-0.8120365001373333,-17.125,34.1875,17.6875
432.5,11.962890625,-15.07568359375,-28.564453125,0.423352763451033,-0.412366100039674,-0.825952940458388,-22.0,34.1875,18.875
433.0,8.72802734375,-38.0859375,-5.0048828125,0.2695394756920072,-0.58668782616657,-0.7925046540726951,-22.375,35.0,15.375
433.5,-28.1982421875,11.3525390625,-44.5556640625,0.1783501693777276,-0.467421491134373,-0.8110599078341014,-24.4375,33.0625,13.0
434.0,-2.5634765625,1.0986328125,-4.638671875,0.3554795983764153,-0.4231086153752251,-0.8434095278786584,-25.8125,32.6875,12.1875
434.5,1.0986328125,-0.18310546875,2.685546875,0.3850215155491805,-0.4140751365703299,-0.8382824182866909,-18.1875,36.125,14.5625
435.0,14.7705078125,-6.53076171875,29.23583984375,0.2699056978057191,-0.576677755058443,-0.7975096896267586,-20.625,36.125,12.9375
435.5,5.859375,-4.7607421875,3.60107421875,0.1381878109073153,-0.618793298135319,-0.793359172338023,-23.375,34.1875,14.9375
436.0,-2.44140625,5.06591796875,-8.056640625,0.1357463301492355,-0.652119510483108,-0.7494125186925871,-24.8125,31.0625,17.6875
436.5,-9.8876953125,-2.0751953125,-31.55517578125,0.3383892330698568,-0.511368144779809,-0.8501235999633778,-22.75,31.5,14.1875
437.0,0.79345703125,3.23486328125,-5.0048828125,0.3170262764366588,-0.3468123416852321,-0.8955351420636616,-24.8125,32.25,14.1875
437.5,1.46484375,0.91552734375,-1.40380859375,0.3208105716116824,-0.3872188482314523,-0.8735618152409437,-25.1875,31.0625,16.9375
438.0,0.1220703125,0.06103515625,0.67138671875,0.3526718955046236,-0.4079714346751305,-0.8598895229956969,-20.625,33.4375,14.9375
438.5,0.18310546875,0.0,0.30517578125,0.347300637836848,-0.3994262520218512,-0.8657490768150884,-20.625,38.125,10.25
439.0,-0.79345703125,-0.6103515625,-1.15966796875,0.3464461195715201,-0.4067506942960905,-0.8576921903134251,-18.5625,38.875,11.75
439.5,1.0986328125,-2.62451171875,1.64794921875,0.3304544206060976,-0.4057741019928587,-0.8691671498764,-22.0,35.4375,12.1875
440.0,-0.3662109375,-1.46484375,1.8310546875,0.3529160435804315,-0.3972289193395794,-0.8752708517715995,-24.8125,32.25,14.1875
440.5,13.7939453125,-6.53076171875,14.58740234375,0.1051057466353343,-0.455946531571398,-0.8331553086947233,-24.8125,32.25,14.9375
441.0,2.197265625,0.06103515625,1.03759765625,0.1003448591570787,-0.4398327585680715,-0.880031739249855,-23.75,31.875,14.1875
441.5,6.77490234375,15.31982421875,4.45556640625,0.1919003875850703,-0.4254280220954008,-0.8381603442487869,-22.375,33.0,16.125
442.0,-2.38037109375,7.8125,-10.009765625,0.2830896938993499,-0.4445936460463271,-0.8622089297158727,-20.625,35.75,14.9375
442.5,0.48828125,-1.3427734375,0.8544921875,0.3055513168736838,-0.4318979461043122,-0.8435316019165624,-18.1875,36.9375,13.0
443.0,20.44677734375,-5.859375,22.94921875,0.2974944303720206,-0.4989165929136021,-0.8244880520035401,-24.0625,33.4375,13.375
443.5,3.173828125,1.15966796875,-1.15966796875,0.2199774163029877,-0.5970641193884091,-0.8209479049043245,-24.8125,33.4375,13.75
444.0,-6.591796875,3.84521484375,-4.2724609375,0.1643116550187688,-0.6063417462691122,-0.782738731040376,-27.25,32.25,14.5625
444.5,-18.06640625,1.52587890625,-15.5029296875,0.3194677571947386,-0.3230079042939542,-0.8640400402844325,-26.1875,32.6875,13.75
445.0,-5.79833984375,-6.8359375,-0.79345703125,0.3097018341624195,-0.3442487868892483,-0.891140476699118,-23.375,33.4375,14.1875
445.5,1.03759765625,0.48828125,-0.244140625,0.3294778283028657,-0.3658558915982543,-0.8929715872676779,-24.8125,30.6875,13.75
446.0,-0.732421875,-0.30517578125,-2.01416015625,0.3280129398480178,-0.358531449324015,-0.8833277382732627,-24.4375,32.25,16.1875
446.5,0.1220703125,-0.06103515625,0.0,0.3315530869472335,-0.3681752983184301,-0.880275887325663,-26.875,31.875,13.75
447.0,29.541015625,-2.01416015625,16.845703125,0.1875057222205267,-0.4879299295022431,-0.847804193243202,-25.8125,30.6875,14.9375
447.5,11.04736328125,-5.43212890625,3.60107421875,0.1168248542741172,-0.6024353770561846,-0.7939695425275429,-26.5625,29.5625,16.5625
448.0,-1.3427734375,3.5400390625,-1.5869140625,0.0986358226264229,-0.652241584521012,-0.761375774407178,-27.25,30.375,15.375
448.5,-20.8740234375,9.033203125,-20.20263671875,0.2467116306039613,-0.531876583147679,-0.8414563432721945,-23.75,32.25,14.9375
449.0,-0.244140625,4.57763671875,-3.11279296875,0.2879726554155095,-0.434949797051912,-0.8656270027771844,-26.1875,30.375,13.375
449.5,0.6103515625,-1.220703125,1.220703125,0.3411969359416486,-0.4262825403607287,-0.8844264046143986,-24.8125,30.6875,14.9375
450.0,-0.18310546875,0.244140625,-0.1220703125,0.3326517532883694,-0.4196905423139134,-0.8679464094973601,-20.25,34.625,14.1875
450.5,4.94384765625,-13.427734375,11.04736328125,0.347544785912656,-0.4327524643696402,-0.911160618915372,-22.75,34.1875,16.125
451.0,8.60595703125,-4.7607421875,7.14111328125,0.1108432264168218,-0.4806054872280038,-0.8553727835932493,-25.8125,34.1875,9.125
451.5,2.99072265625,-4.0283203125,1.953125,0.1229285561693167,-0.5096591082491531,-0.8730735190893277,-17.5,35.75,6.3125
452.0,-12.63427734375,14.892578125,-30.517578125,0.227546006653035,-0.4201788384655293,-0.8250984221930601,-19.9375,38.125,11.75
452.5,1.52587890625,3.35693359375,-1.46484375,0.3115329447309793,-0.4359263893551439,-0.8517105624561296,-24.8125,32.25,15.375
453.0,-1.220703125,0.30517578125,-1.5869140625,0.3404644917142246,-0.456434827723014,-0.8430433057649465,-22.75,32.25,15.375
453.5,2.13623046875,2.3193359375,1.52587890625,0.3444929349650563,-0.4063844721823786,-0.8579363383892331,-19.5625,35.4375,16.9375
454.0,1.708984375,-0.3662109375,1.40380859375,0.3320413830988494,-0.4585100863673818,-0.8451185644093142,-24.4375,32.25,11.4375
454.5,-3.41796875,1.8310546875,-4.82177734375,0.3153172399060029,-0.4597308267464217,-0.8498794518875699,-17.5,35.0,16.125
455.0,0.3662109375,-0.48828125,-0.54931640625,0.3393658253730888,-0.4411755729850154,-0.8509781182287057,-18.5625,33.8125,19.6875
455.5,-0.6103515625,-2.25830078125,-2.13623046875,0.292855616931669,-0.4725486007263405,-0.8349864192632832,-15.75,33.4375,20.5
456.0,-3.11279296875,1.03759765625,-2.50244140625,0.3031098361156041,-0.41224402600177,-0.8681905575731681,-14.3125,34.1875,22.0625
456.5,-0.30517578125,-1.28173828125,0.18310546875,0.3106784264656514,-0.4303109836115604,-0.8658711508529924,-12.9375,31.0625,25.1875
457.0,0.9765625,1.220703125,0.8544921875,0.2984710226752525,-0.4223761711478011,-0.8506118961149938,-11.25,34.625,22.0625
457.5,2.3193359375,-0.30517578125,1.03759765625,0.3006683553575243,-0.4502090517899105,-0.8500015259254738,-16.125,35.4375,15.75
458.0,0.0,-1.40380859375,-0.48828125,0.3126316110721152,-0.4370250556962798,-0.8651387066255684,-16.125,36.9375,13.75
458.5,1.8310546875,1.220703125,0.06103515625,0.3062837611011078,-0.4372692037720878,-0.859157078768273,-16.4375,36.125,16.1875
459.0,13.671875,5.31005859375,10.07080078125,0.2672200689718314,-0.4924466689046907,-0.8205816827906125,-24.0625,33.4375,15.375
459.5,-20.93505859375,6.4697265625,0.6103515625,0.0568865016632587,-0.5063631092257455,-0.8959013641773735,-23.375,31.875,15.375
460.0,6.9580078125,27.2216796875,7.9345703125,0.629779961546678,-0.36939603869747,-0.9054231391338848,-21.0,36.125,15.75
460.5,7.01904296875,-20.1416015625,25.93994140625,0.2622150334177678,-0.5841242713705863,-0.7572252571184424,-16.75,36.9375,11.4375
461.0,0.30517578125,-0.91552734375,2.685546875,0.1174352244636371,-0.6801965392010254,-0.7368388927884763,-16.75,36.5625,13.375
461.5,-17.08984375,11.5966796875,-34.97314453125,0.2353587450788903,-0.5308999908444472,-0.8139896847437971,-19.9375,34.625,19.6875
462.0,-7.38525390625,4.57763671875,1.46484375,0.3675649281289102,-0.4604632709738456,-0.8511001922666097,-23.75,31.5,14.1875
462.5,9.3994140625,-15.7470703125,13.24462890625,0.1126743369853816,-0.4851222266304513,-0.8067873165074618,-17.5,38.5,14.5625
463.0,-12.20703125,13.427734375,-12.6953125,0.2213202307199316,-0.510879848628193,-0.8761253700369274,-14.6875,37.3125,11.0625
463.5,-2.62451171875,-18.06640625,14.46533203125,0.315439313943907,-0.4752342295602282,-0.8542741172521134,-18.1875,36.9375,12.5625
464.0,-14.83154296875,8.72802734375,12.939453125,0.1577196569719535,-0.4213995788445692,-0.8967558824427015,-24.0625,32.25,13.375
464.5,-1.0986328125,6.34765625,13.73291015625,0.1595507675405133,-0.3438825647755363,-0.9587694936979276,-25.1875,31.5,14.5625
465.0,4.82177734375,-3.0517578125,7.38525390625,0.2113101596118045,-0.4040650654622028,-0.933378093813898,-25.1875,33.4375,12.1875
465.5,-18.06640625,-5.7373046875,-20.56884765625,0.1669972838526566,-0.1568651387066255,-0.979155858027894,-25.8125,32.25,13.75
466.0,18.06640625,4.2724609375,11.474609375,0.162236396374401,-0.1582079531235694,-0.97720267342143,-27.25,32.25,12.1875
466.5,8.72802734375,2.197265625,-12.14599609375,0.1479537339396344,-0.4282357249671926,-0.9183629871517076,-24.4375,31.5,11.4375
467.0,-0.732421875,-13.427734375,-19.34814453125,0.271492660298471,-0.3841669972838527,-0.9145786919766838,-25.1875,30.375,14.1875
467.5,7.8125,-5.06591796875,3.662109375,0.1019318216498306,-0.5670339060640278,-0.8385265663624989,-25.5,30.375,18.875
468.0,-5.9814453125,11.04736328125,-13.48876953125,0.0500503555406353,-0.5195471053193762,-0.770897549363689,-23.375,31.875,14.9375
468.5,1.5869140625,-1.708984375,-10.498046875,0.2889492477187414,-0.4221320230719931,-0.9084749900814844,-24.8125,31.875,16.125
469.0,0.8544921875,-9.521484375,10.3759765625,0.3418073061311685,-0.3441267128513443,-0.9172643208105716,-24.4375,31.875,18.875
469.5,4.2724609375,-2.685546875,1.3427734375,0.1906796472060304,-0.4939115573595385,-0.8872341074861904,-23.375,32.6875,11.4375
470.0,3.2958984375,-6.65283203125,11.474609375,0.141483809930723,-0.5370036927396465,-0.8515884884182257,-24.4375,33.0,11.4375
