time,LUPA_gyr_x,LUPA_gyr_y,LUPA_gyr_z,LUPA_acc_x,LUPA_acc_y,LUPA_acc_z,LUPA_mag_x,LUPA_mag_y,LUPA_mag_z
0.0,-0.18310546875,-0.18310546875,0.0,0.424085207678457,-0.5780205694753868,-0.6772667622913296,9.3125,34.9375,11.625
0.5,0.54931640625,0.06103515625,0.0,0.4172490615558336,-0.5778984954374828,-0.6756797997985778,10.6875,34.6875,13.4375
1.0,0.54931640625,0.30517578125,0.0,0.4206671346171453,-0.5786309396649068,-0.6766563921018097,9.3125,35.6875,15.625
1.5,-0.06103515625,-0.3662109375,0.06103515625,0.4267708365123447,-0.5799737540818506,-0.6769005401776177,9.3125,33.9375,16.4375
2.0,0.06103515625,-0.18310546875,0.18310546875,0.4213995788445692,-0.575579088717307,-0.6766563921018097,11.3125,35.0,12.9375
2.5,0.06103515625,-0.244140625,0.18310546875,0.4216437269203772,-0.5789971617786187,-0.6770226142155217,8.3125,32.4375,8.4375
3.0,-0.9765625,-0.91552734375,-0.06103515625,0.4227423932615131,-0.5791192358165227,-0.6792199468977935,9.3125,34.3125,15.1875
3.5,0.42724609375,-0.30517578125,0.1220703125,0.4209112826929533,-0.5747245704519791,-0.6771446882534257,8.6875,32.8125,10.75
4.0,0.18310546875,-0.06103515625,0.244140625,0.4279915768913846,-0.576677755058443,-0.6695760979033784,7.3125,33.9375,11.125
4.5,13.85498046875,-7.32421875,3.96728515625,0.4382457960753196,-0.6571245460371715,-0.7003387554551835,9.0,35.0,9.8125
5.0,9.21630859375,-67.138671875,49.86572265625,-0.0458998382518997,-0.6363719595934935,-0.7716299935911131,21.4375,31.375,5.375
5.5,5.67626953125,0.3662109375,6.591796875,-0.4171269875179296,-0.6717734305856502,-0.5483565782647175,25.1875,26.3125,-2.5625
6.0,-34.3017578125,83.49609375,-130.79833984375,0.5387127292703024,-0.9153111362041078,-0.7896969512009033,-0.4375,36.8125,0.9375
6.5,-21.91162109375,20.8740234375,1.28173828125,0.8359630115665151,-0.2977385784478286,-0.4203009125034333,-12.1875,32.4375,4.9375
7.0,-4.94384765625,-40.46630859375,18.37158203125,0.977446821497238,-0.3315530869472335,-0.5479903561510056,-9.5,31.0625,11.625
7.5,35.15625,-18.49365234375,43.64013671875,0.1453901791436506,-0.52211066011536,-0.7806634723960082,11.6875,33.9375,11.125
8.0,0.06103515625,52.490234375,-22.705078125,-0.0028077028717917,-0.5278481398968474,-0.7861568041016876,13.375,32.8125,11.125
8.5,39.36767578125,-29.35791015625,32.53173828125,0.0874050111392559,-0.5920590838343456,-0.7939695425275429,15.75,32.4375,8.5
9.0,-4.39453125,-46.08154296875,16.54052734375,-0.1868953520310068,-0.750144962920011,-0.4937894833216346,22.8125,31.75,-7.0625
9.5,-39.73388671875,59.6923828125,-79.58984375,-0.0124515518662068,-0.6253852961821345,-0.5080721457564012,16.75,35.0,4.0625
10.0,-17.822265625,63.4765625,-40.83251953125,0.7750480666524246,-0.3673207800531022,-0.5667897579882198,-6.125,29.9375,18.25
10.5,24.47509765625,-85.26611328125,70.86181640625,0.6379589220862453,-0.543717764824366,-0.7004608294930875,6.3125,34.6875,14.25
11.0,21.240234375,-57.12890625,48.27880859375,0.3294778283028657,-0.629657887508774,-0.6771446882534257,12.6875,36.4375,5.375
11.5,16.66259765625,-4.5166015625,34.36279296875,-0.1442915128025147,-0.7595446638386181,-0.5902279732657857,19.8125,32.4375,-2.1875
12.0,16.66259765625,33.203125,-46.20361328125,-0.2044740134891811,-0.5479903561510056,-0.3065279091769158,21.8125,30.3125,-2.1875
12.5,-40.58837890625,10.1318359375,23.01025390625,0.4464247566148869,-0.5926694540238655,-0.3333841975157933,10.3125,35.3125,8.0625
13.0,-7.9345703125,0.1220703125,3.72314453125,0.4027222510452589,-0.7136448255867184,-0.5086825159459212,13.6875,31.0625,11.125
13.5,-0.06103515625,-0.06103515625,-0.18310546875,0.3827021088290048,-0.7025360881374554,-0.5589770195623646,13.0625,32.0625,8.9375
14.0,-2.01416015625,-0.06103515625,0.06103515625,0.3892941068758201,-0.6971648304696798,-0.5630054628131962,14.6875,31.75,10.75
14.5,0.18310546875,0.42724609375,-0.6103515625,0.3886837366863002,-0.6966765343180639,-0.5793633838923307,11.6875,32.0625,8.9375
15.0,1.03759765625,-0.6103515625,-0.1220703125,0.3823358867152928,-0.6820276497695853,-0.5802179021576587,14.0,33.1875,11.625
15.5,-1.64794921875,-0.06103515625,0.1220703125,0.3825800347911008,-0.6878872035889767,-0.5905941953794976,13.6875,32.4375,12.5
16.0,24.658203125,-21.484375,-116.0888671875,0.5509201330607013,-0.47804193243202,-0.6009704886013367,0.875,38.25,11.125
16.5,-13.85498046875,75.927734375,-12.39013671875,0.6513870662556841,-0.1175572985015411,-0.4218878749961852,-16.625,27.0625,13.8125
17.0,-38.63525390625,-175.96435546875,38.0859375,0.8507339701528978,-0.2034974211859492,-0.9306924649800103,-0.6875,25.625,26.6875
17.5,14.0380859375,-24.10888671875,9.27734375,-0.3535264137699515,-0.0560319833979308,-0.8684347056489761,14.375,27.75,26.1875
18.0,50.78125,199.89013671875,-33.935546875,0.7748039185766167,-0.5238196966460158,-1.1617786187322612,-9.1875,31.75,10.75
18.5,3.35693359375,-33.14208984375,30.09033203125,0.8052003540147099,-0.3191015350810266,-0.6139103366191595,-2.75,31.375,18.25
19.0,74.64599609375,-29.84619140625,58.4716796875,0.4589983825189977,-0.6156193731498154,-0.7467268898586993,12.375,33.1875,9.375
19.5,4.39453125,-10.92529296875,12.02392578125,-0.2047181615649891,-0.7243873409222693,-0.4492324594866786,23.1875,28.875,-1.25
20.0,-7.8125,45.95947265625,-101.01318359375,0.0657979064302499,-0.7203588976714377,-0.5665456099124119,13.0625,32.4375,5.8125
20.5,-29.78515625,7.8125,-70.00732421875,0.9059114352855008,-0.271248512222663,-0.5448164311655018,-14.875,29.1875,10.75
21.0,28.1982421875,-92.4072265625,57.67822265625,0.8183843501083408,-0.2618488113040559,-0.6976531266212959,-2.4375,29.1875,13.8125
21.5,30.82275390625,13.18359375,61.1572265625,0.1038850062562944,-0.7079073458052308,-0.532242805261391,20.4375,31.0625,-3.4375
22.0,-77.20947265625,5.18798828125,-89.2333984375,0.1307412945951719,-0.6963103122043519,-0.4179815057832575,9.3125,36.8125,6.25
22.5,-2.8076171875,59.50927734375,-66.650390625,0.8324228644672994,-0.249885555589465,-0.6445509201330607,-11.5,29.9375,11.125
23.0,-27.34375,23.62060546875,29.4189453125,0.8783227027191992,-0.1834772789696951,-0.5045319986571856,-7.8125,29.5625,17.8125
23.5,0.30517578125,0.67138671875,-0.67138671875,0.8550065614795374,-0.2020325327311014,-0.4690084536271248,-7.8125,33.5625,16.4375
24.0,7.62939453125,2.62451171875,-2.62451171875,0.8641621143223365,-0.1984923856318857,-0.4543595690786462,-10.5625,31.0625,15.1875
24.5,-5.859375,-0.91552734375,-0.18310546875,0.8543961912900174,-0.2070375682851649,-0.4519180883205664,-8.8125,31.375,13.4375
25.0,-3.662109375,1.5869140625,3.60107421875,0.8763695181127353,-0.1760307626575518,-0.4422742393261513,-9.1875,28.5,18.25
25.5,2.01416015625,-1.0986328125,-2.13623046875,0.868678853724784,-0.1915341654713583,-0.4506973479415265,-10.5625,30.3125,15.1875
26.0,1.77001953125,0.42724609375,-0.42724609375,0.8641621143223365,-0.2032532731101413,-0.4619281594286935,-8.8125,29.9375,13.4375
26.5,-2.62451171875,0.30517578125,0.732421875,0.8653828547013764,-0.1928769798883022,-0.4524063844721824,-7.8125,29.9375,16.0
27.0,0.67138671875,-1.3427734375,0.9765625,0.8733176671651357,-0.1904354991302224,-0.4318979461043122,-10.1875,31.75,16.4375
27.5,0.732421875,-0.6103515625,-0.42724609375,0.8596453749198889,-0.2074037903988769,-0.4544816431165502,-8.8125,27.75,13.8125
28.0,-1.3427734375,0.18310546875,0.1220703125,0.869899594103824,-0.2030091250343333,-0.4420300912503433,-8.5,29.5625,13.4375
28.5,0.79345703125,-0.3662109375,-0.3662109375,0.8736838892788477,-0.2034974211859492,-0.445326090273751,-8.5,32.0625,13.4375
29.0,1.953125,-0.42724609375,-0.9765625,0.8739280373546556,-0.1942197943052461,-0.4351939451277199,-8.8125,30.6875,11.625
29.5,-2.13623046875,-0.8544921875,0.9765625,0.8680684835352641,-0.1936094241157261,-0.4437391277809991,-7.1875,30.6875,16.0
30.0,0.54931640625,0.3662109375,-0.3662109375,0.8707541123691519,-0.2016663106173894,-0.4387340922269356,-9.5,32.0625,12.5
30.5,-1.28173828125,0.91552734375,-0.18310546875,0.879665517136143,-0.1826227607043672,-0.423596911526841,-9.875,29.5625,12.5
31.0,0.91552734375,-0.1220703125,-0.6103515625,0.8755149998474074,-0.1917783135471663,-0.434095278786584,-9.5,29.5625,17.8125
31.5,-0.1220703125,-0.06103515625,-0.06103515625,0.8709982604449599,-0.1927549058503982,-0.4423963133640552,-8.5,31.75,12.5
32.0,0.48828125,-0.732421875,-0.18310546875,0.8708761864070559,-0.19495223853267,-0.4392223883785516,-9.875,31.0625,16.4375
32.5,0.42724609375,-0.42724609375,0.54931640625,0.8738059633167516,-0.194708090456862,-0.4516739402447584,-8.8125,29.9375,14.25
33.0,14.34326171875,-73.54736328125,25.69580078125,0.7730948820459609,-0.3128757591479232,-0.7804193243202002,4.25,32.8125,19.5625
33.5,56.94580078125,-44.921875,69.7021484375,-0.2461012604144413,-0.5278481398968474,-0.6236762596514787,23.5,28.875,-2.0625
34.0,8.30078125,11.53564453125,2.50244140625,-0.4221320230719931,-0.532120731223487,-0.5250404370250557,24.5,29.1875,-2.5625
34.5,-63.8427734375,119.56787109375,-117.00439453125,0.7320780053102206,-0.5475020599993896,-0.6692098757896664,-10.1875,31.75,12.0625
35.0,7.62939453125,10.31494140625,-5.67626953125,0.9249549851985228,-0.216559343241676,-0.4649800103762932,-11.5,29.5625,9.375
35.5,-7.50732421875,-76.35498046875,59.4482421875,0.8303476058229317,-0.2316965239417706,-0.6219672231208228,1.9375,33.1875,18.625
36.0,-3.90625,31.43310546875,18.4326171875,0.3099459822382275,-0.3408307138279366,-0.7406231879634999,10.6875,28.875,16.4375
36.5,2.8076171875,1.953125,-7.32421875,0.412366100039674,-0.445448164311655,-0.749656666768395,11.3125,29.1875,20.4375
37.0,-0.48828125,52.06298828125,-99.18212890625,0.8087405011139256,-0.2784508804589984,-0.6803186132389294,-11.875,30.6875,17.3125
37.5,-12.6953125,-53.1005859375,67.7490234375,0.8548844874416334,-0.2555009613330485,-0.6485793633838923,-0.0625,30.3125,16.4375
38.0,-3.0517578125,19.59228515625,35.7666015625,0.3057954649494919,-0.2487868892483291,-0.6710409863582263,13.3125,28.125,19.5625
38.5,2.38037109375,-0.79345703125,1.52587890625,0.3880733664967803,-0.379894405957213,-0.8172856837672048,12.375,26.3125,24.0
39.0,0.91552734375,-0.244140625,0.18310546875,0.3830683309427167,-0.3940549943540757,-0.8236335337382122,12.0,27.75,20.0
39.5,-0.54931640625,2.99072265625,-1.46484375,0.390758995330668,-0.3877071443830683,-0.826441236610004,11.3125,27.0625,22.6875
40.0,5.859375,-1.8310546875,-4.8828125,0.3825800347911008,-0.4250617999816889,-0.8093508713034455,12.6875,27.0625,20.0
40.5,-6.103515625,2.44140625,16.54052734375,0.3718375194555497,-0.4516739402447584,-0.826075014496292,13.375,24.875,25.8125
41.0,-5.615234375,-0.732421875,-1.5869140625,0.3776970732749412,-0.4517960142826624,-0.7958006530961028,14.375,27.0625,25.8125
41.5,0.18310546875,-0.9765625,-2.5634765625,0.3634144108401745,-0.423596911526841,-0.8174077578051088,13.375,26.6875,22.6875
42.0,-0.91552734375,0.48828125,-0.3662109375,0.3726920377208777,-0.4226203192236091,-0.8169194616534928,14.0,26.0,24.875
42.5,-0.244140625,-0.1220703125,-0.18310546875,0.3823358867152928,-0.3997924741355632,-0.8161870174260689,12.6875,26.3125,24.0
43.0,0.244140625,-0.1220703125,0.1220703125,0.3709830011902219,-0.4050416577654347,-0.8198492385631886,11.6875,26.6875,26.6875
43.5,0.06103515625,-0.1220703125,0.1220703125,0.3742790002136296,-0.4036988433484909,-0.8203375347148045,13.375,27.4375,23.625
44.0,0.18310546875,-0.3662109375,0.30517578125,0.3709830011902219,-0.4052858058412427,-0.8203375347148045,15.0625,26.3125,18.625
44.5,0.06103515625,-0.1220703125,0.18310546875,0.3707388531144139,-0.4034546952726829,-0.8204596087527085,12.375,25.625,24.0
45.0,6.591796875,-102.60009765625,26.7333984375,0.1527146214178899,-0.5785088656270028,-0.976836451307718,23.875,29.9375,12.0625
45.5,8.30078125,-14.0380859375,-29.6630859375,-0.3350932340464492,-0.5329752494888149,-0.5238196966460158,14.0,35.6875,1.375
46.0,-31.31103515625,108.33740234375,-44.98291015625,0.7127903073213904,-0.5645924253059481,-0.7315897091586047,-7.5,34.3125,9.375
46.5,-14.09912109375,-63.29345703125,28.076171875,0.7804193243202002,-0.4384899441511276,-0.7131565294351024,7.3125,31.0625,18.625
47.0,12.20703125,4.21142578125,3.662109375,-0.0821558275093844,-0.1905575731681264,-0.8125247962889492,15.75,30.6875,20.0
47.5,96.00830078125,-1.3427734375,46.0205078125,0.30420850245674,-0.6798303170873135,-1.0746177556688132,19.4375,29.9375,11.625
48.0,12.8173828125,-2.685546875,8.48388671875,-0.0271004364146855,-0.6621295815912351,-0.618671224097415,17.75,34.6875,4.5
48.5,-10.92529296875,20.81298828125,-27.77099609375,0.3968626972258675,-0.7950682088686789,-0.727927488021485,9.0,36.8125,4.0625
49.0,0.9765625,-35.46142578125,37.7197265625,0.4659566026795251,-0.8335215308084353,-0.6556596575823237,15.375,33.5625,0.0625
49.5,-0.91552734375,19.53125,-15.5029296875,0.0802026429029206,-0.7574694051942503,-0.3813592944120609,12.6875,33.5625,7.1875
50.0,-9.58251953125,1.77001953125,-1.0986328125,0.4173711355937376,-0.6803186132389294,-0.5189367351298563,10.6875,34.6875,8.9375
50.5,12.02392578125,-4.21142578125,-6.103515625,0.4026001770073549,-0.7125461592455824,-0.5649586474196601,10.3125,32.8125,5.8125
51.0,6.103515625,-9.521484375,-7.568359375,0.4458143864253669,-0.7140110477004303,-0.5550706503494369,8.3125,36.8125,11.125
51.5,28.1982421875,53.16162109375,-41.32080078125,0.5637379070406201,-0.2985930967131565,-0.8088625751518296,-4.4375,31.75,15.625
52.0,8.23974609375,25.0244140625,-53.3447265625,0.8119144260994293,-0.0526139103366191,-0.4145634327219458,-10.875,26.6875,15.625
52.5,8.6669921875,-24.4140625,7.32421875,0.8493911557359538,-0.0246589556566057,-0.5749687185277871,-1.0625,28.875,22.25
53.0,-16.7236328125,-17.39501953125,71.1669921875,0.1826227607043672,-0.1575975829340495,-0.7168187505722221,13.0625,26.3125,25.375
53.5,-16.78466796875,2.86865234375,4.82177734375,0.3829462569048127,-0.3328959013641773,-0.7544175542466506,12.6875,27.0625,24.0
54.0,-3.662109375,0.9765625,1.3427734375,0.3823358867152928,-0.347300637836848,-0.8448744163335062,14.6875,27.75,22.25
54.5,0.18310546875,-0.244140625,0.67138671875,0.3923459578234199,-0.3410748619037446,-0.8397473067415387,13.0625,26.6875,26.6875
55.0,0.42724609375,-0.06103515625,0.1220703125,0.3918576616718039,-0.3399761955626087,-0.8418225653859066,12.6875,26.6875,20.9375
55.5,0.67138671875,0.0,0.244140625,0.3988158818323313,-0.3375347148045289,-0.838038270210883,13.0625,25.625,26.1875
56.0,0.06103515625,-0.30517578125,-0.06103515625,0.3941770683919797,-0.3377788628803369,-0.8414563432721945,10.6875,24.875,24.875
56.5,1.03759765625,1.708984375,-0.8544921875,0.380016479995117,-0.3558458204901272,-0.8458510086367382,12.0,25.25,22.25
57.0,0.30517578125,-0.1220703125,0.48828125,0.390636921292764,-0.3424176763206885,-0.8446302682576983,12.375,24.875,23.125
57.5,0.18310546875,-0.18310546875,0.18310546875,0.3938108462782678,-0.3304544206060976,-0.8424329355754265,12.375,27.0625,28.0
58.0,-0.06103515625,-0.244140625,-0.06103515625,0.3884395886104922,-0.3353373821222571,-0.8427991576891385,13.6875,26.3125,26.1875
58.5,-0.1220703125,-0.06103515625,-0.1220703125,0.390758995330668,-0.3397320474868007,-0.8412121951963866,13.0625,26.3125,24.875
59.0,0.42724609375,0.0,0.244140625,0.3899044770653401,-0.3386333811456648,-0.8449964903714102,12.0,25.25,24.4375
59.5,0.0,-0.18310546875,0.18310546875,0.3935666982024598,-0.3325296792504654,-0.8420667134617146,12.0,26.0,23.5
60.0,0.0,-0.30517578125,-0.06103515625,0.3900265511032441,-0.336558122501297,-0.8436536759544664,12.6875,25.25,24.0
60.5,-0.18310546875,0.18310546875,-0.06103515625,0.3899044770653401,-0.3386333811456648,-0.8426770836512345,13.0625,25.25,24.875
61.0,0.06103515625,-0.18310546875,0.1220703125,0.3901486251411481,-0.3382671590319528,-0.8421887874996186,11.3125,26.6875,25.8125
61.5,0.54931640625,0.0,-0.06103515625,0.3901486251411481,-0.3381450849940489,-0.8442640461439863,12.6875,27.0625,20.9375
62.0,-0.18310546875,0.1220703125,0.244140625,0.3869747001556444,-0.3394878994109928,-0.8426770836512345,11.3125,27.4375,24.875
62.5,0.1220703125,0.0,0.30517578125,0.3905148472548601,-0.336924344615009,-0.84804834131901,11.3125,27.4375,27.125
63.0,-0.30517578125,-0.244140625,0.06103515625,0.3870967741935484,-0.3389996032593768,-0.8431653798028504,12.0,25.625,27.5625
63.5,-0.06103515625,-0.244140625,0.244140625,0.3892941068758201,-0.3383892330698568,-0.847560045167394,11.0,24.5,23.125
64.0,0.06103515625,0.18310546875,0.0,0.3862422559282205,-0.3391216772972808,-0.8463393047883542,12.0,25.25,25.375
64.5,0.244140625,-0.1220703125,0.244140625,0.3877071443830683,-0.337290566728721,-0.8448744163335062,12.6875,27.0625,21.75
65.0,-0.1220703125,0.06103515625,0.0,0.3891720328379162,-0.3319193090609454,-0.8423108615375225,12.0,26.3125,26.1875
65.5,0.1220703125,-0.18310546875,-0.18310546875,0.3914914395580919,-0.3358256782738731,-0.8443861201818903,12.0,26.0,21.3125
66.0,0.06103515625,-0.3662109375,0.18310546875,0.3878292184209723,-0.3354594561601611,-0.8434095278786584,11.6875,25.625,24.4375
66.5,-0.06103515625,-0.244140625,0.0,0.3877071443830683,-0.3330179754020813,-0.8424329355754265,11.0,25.25,25.375
67.0,-0.1220703125,-0.1220703125,0.0,0.3927121799371318,-0.3309427167577135,-0.8449964903714102,12.6875,27.4375,28.875
67.5,0.3662109375,-0.18310546875,0.244140625,0.3899044770653401,-0.3319193090609454,-0.8440198980681783,12.6875,26.3125,23.625
68.0,0.30517578125,-0.1220703125,0.18310546875,0.390636921292764,-0.3335062715536973,-0.8486587115085299,11.0,26.6875,23.125
68.5,0.6103515625,0.0,0.18310546875,0.3894161809137241,-0.3332621234778893,-0.8473158970915861,12.375,26.3125,24.875
69.0,0.30517578125,0.06103515625,0.1220703125,0.391369365520188,-0.3336283455916013,-0.8448744163335062,12.0,25.25,23.5
69.5,0.48828125,-0.3662109375,0.79345703125,0.391369365520188,-0.3332621234778893,-0.8469496749778741,11.3125,26.3125,24.875
70.0,0.42724609375,-0.30517578125,0.1220703125,0.3932004760887478,-0.3321634571367534,-0.8429212317270425,12.375,27.4375,26.6875
70.5,0.1220703125,-0.1220703125,0.18310546875,0.390758995330668,-0.3326517532883694,-0.8414563432721945,13.375,26.0,26.6875
71.0,0.3662109375,0.0,0.42724609375,0.3890499588000122,-0.3397320474868007,-0.8459730826746422,11.6875,25.625,28.0
71.5,0.48828125,-0.1220703125,0.3662109375,0.391247291482284,-0.3344828638569292,-0.8436536759544664,13.0625,25.625,24.4375
72.0,-0.3662109375,0.06103515625,-0.48828125,0.3901486251411481,-0.3387554551835688,-0.8449964903714102,12.0,26.6875,24.0
72.5,-0.42724609375,-0.3662109375,0.244140625,0.390881069368572,-0.3402203436384167,-0.8469496749778741,12.375,25.25,24.4375
73.0,0.3662109375,-0.244140625,0.3662109375,0.39112521744438,-0.3350932340464492,-0.8489028595843379,12.375,26.3125,25.375
73.5,-0.1220703125,-0.244140625,0.06103515625,0.3902706991790521,-0.336680196539201,-0.8484145634327219,13.0625,26.3125,24.4375
74.0,0.48828125,-0.244140625,0.18310546875,0.3889278847621082,-0.3338724936674093,-0.8468276009399701,11.6875,25.25,25.8125
74.5,0.244140625,0.0,0.0,0.3855098117007965,-0.3331400494399854,-0.847804193243202,11.6875,23.75,24.0
75.0,0.48828125,0.0,-0.06103515625,0.3900265511032441,-0.337168492690817,-0.8451185644093142,13.375,27.75,26.1875
75.5,-0.06103515625,-0.06103515625,0.06103515625,0.3918576616718039,-0.3389996032593768,-0.8492690816980498,12.0,24.875,24.875
76.0,0.6103515625,0.0,0.06103515625,0.3884395886104922,-0.3310647907956175,-0.847926267281106,11.6875,27.4375,27.125
76.5,0.0,-0.06103515625,0.06103515625,0.3857539597766045,-0.3316751609851375,-0.8469496749778741,11.6875,25.25,20.4375
77.0,0.48828125,-0.1220703125,0.3662109375,0.3874629963072603,-0.337168492690817,-0.8469496749778741,13.0625,27.75,26.1875
77.5,0.6103515625,-0.30517578125,0.48828125,0.3874629963072603,-0.3335062715536973,-0.8468276009399701,12.0,24.875,24.0
78.0,-0.1220703125,0.06103515625,0.0,0.3861201818903165,-0.3330179754020813,-0.8484145634327219,13.0625,25.25,24.0
78.5,0.06103515625,0.06103515625,-0.244140625,0.3838007751701406,-0.336558122501297,-0.8443861201818903,11.6875,26.0,24.0
79.0,0.06103515625,-0.06103515625,-0.06103515625,0.3897824030274361,-0.3310647907956175,-0.8445081942197943,12.0,27.4375,20.0
79.5,-0.06103515625,-0.1220703125,0.42724609375,0.3881954405346843,-0.3315530869472335,-0.8462172307504502,13.0625,24.875,26.6875
80.0,0.18310546875,-0.18310546875,-0.06103515625,0.3880733664967803,-0.3317972350230415,-0.847804193243202,11.0,24.875,24.0
80.5,0.0,-0.1220703125,0.06103515625,0.3851435895870845,-0.3350932340464492,-0.8495132297738578,11.6875,25.25,26.1875
81.0,0.1220703125,-0.1220703125,0.1220703125,0.3840449232459487,-0.3338724936674093,-0.848170415356914,11.6875,25.25,25.375
81.5,0.3662109375,0.06103515625,0.1220703125,0.3883175145725883,-0.3320413830988494,-0.8473158970915861,13.0625,26.0,24.875
82.0,0.30517578125,0.0,0.18310546875,0.3928342539750358,-0.3277687917722098,-0.8457289345988341,11.3125,26.0,24.4375
82.5,0.1220703125,-0.18310546875,0.06103515625,0.3919797357097079,-0.3294778283028657,-0.8463393047883542,12.375,26.0,26.1875
83.0,0.3662109375,-0.244140625,0.1220703125,0.3899044770653401,-0.3293557542649617,-0.8482924893948179,10.6875,26.0,24.0
83.5,-0.1220703125,-0.18310546875,0.18310546875,0.3891720328379162,-0.3333841975157933,-0.8471938230536821,11.6875,27.4375,24.875
84.0,0.0,-0.18310546875,0.244140625,0.3892941068758201,-0.3341166417432172,-0.8482924893948179,12.6875,25.25,21.3125
84.5,-0.6103515625,-0.06103515625,-0.54931640625,0.3868526261177404,-0.3344828638569292,-0.8459730826746422,11.3125,26.0,23.5
85.0,11.474609375,-22.15576171875,11.71875,0.3988158818323313,-0.3591418195135349,-0.9689016388439587,18.75,30.6875,4.9375
85.5,71.1669921875,-2.44140625,33.0810546875,-0.1450239570299386,-0.6811731315042573,-0.6436964018677328,14.6875,36.0625,3.5625
86.0,-49.74365234375,62.3779296875,-143.61572265625,0.5349284340952788,-0.7673574022644734,-0.6449171422467727,-6.5,34.6875,11.125
86.5,-19.53125,15.07568359375,-25.0244140625,0.8597674489577929,-0.2957853938413647,-0.5600756859035004,12.0,31.375,21.3125
87.0,-32.16552734375,-11.41357421875,48.64501953125,0.1900692770165105,-0.10864589373455,-0.5008697775200659,13.0625,26.0,27.5625
87.5,-8.7890625,0.3662109375,5.37109375,0.434217352824488,-0.3457136753440962,-0.8292489394817957,12.0,26.6875,27.125
88.0,1.46484375,1.46484375,-2.197265625,0.4033326212347788,-0.3435163426618244,-0.825342570268868,3.9375,29.5625,21.75
88.5,39.4287109375,77.5146484375,-83.43505859375,0.7225562303537095,-0.380382702108829,-0.6382030701620532,0.875,28.875,20.4375
89.0,-46.93603515625,-93.93310546875,74.70703125,0.5742362743003632,-0.2970061342204046,-0.7024140140995514,13.0625,26.3125,24.4375
89.5,-3.72314453125,-15.0146484375,3.90625,0.4900051881466109,-0.2941984313486129,-0.9077425458540604,12.6875,27.0625,23.125
90.0,0.06103515625,-0.244140625,-0.06103515625,0.3734244819483016,-0.3383892330698568,-0.8520767845698416,13.0625,23.125,24.875
90.5,0.42724609375,-0.54931640625,0.0,0.3761101107821894,-0.3337504196295053,-0.8482924893948179,11.6875,26.6875,25.8125
91.0,-0.48828125,0.1220703125,-0.3662109375,0.3746452223273415,-0.3358256782738731,-0.8511001922666097,14.0,26.6875,24.4375
91.5,-0.48828125,0.06103515625,-0.18310546875,0.369029816583758,-0.336558122501297,-0.8552507095553453,12.0,26.3125,20.9375
92.0,0.1220703125,-0.30517578125,0.42724609375,0.3764763328959014,-0.3274025696584979,-0.8502456740012818,13.375,25.625,26.6875
92.5,-0.1220703125,-0.1220703125,-0.06103515625,0.3729361857966857,-0.3308206427198095,-0.8541520432142095,12.6875,26.6875,23.5
93.0,0.0,-0.1220703125,-0.244140625,0.369640186773278,-0.3322855311746574,-0.8540299691763055,12.6875,27.75,26.1875
93.5,8.9111328125,8.544921875,-8.7890625,0.3490096743675039,-0.260872219000824,-0.8460951567125462,9.0,33.9375,7.625
94.0,-8.48388671875,9.33837890625,8.6669921875,0.4969634083071382,-0.6650593585009308,-0.5803399761955627,8.0,31.75,8.9375
94.5,-0.8544921875,-1.3427734375,-0.48828125,0.4430066835535752,-0.6533402508621479,-0.5728934598834193,11.0,33.5625,10.3125
95.0,-7.080078125,-1.953125,0.9765625,0.423718985564745,-0.6447950682088687,-0.5919370097964416,9.6875,33.9375,8.4375
95.5,3.2958984375,-2.9296875,-4.45556640625,0.4309213538010804,-0.6649372844630268,-0.5883968626972259,10.3125,34.3125,12.9375
96.0,0.8544921875,-0.91552734375,-0.54931640625,0.4309213538010804,-0.6422315134128849,-0.608539078951384,11.3125,34.6875,9.8125
96.5,0.8544921875,-0.42724609375,-0.42724609375,0.4383678701132236,-0.6421094393749809,-0.6047547837763604,10.6875,33.9375,9.8125
97.0,1.64794921875,-0.30517578125,0.0,0.4316537980285043,-0.640766624958037,-0.6095156712546159,10.6875,34.3125,12.0625
97.5,0.79345703125,0.06103515625,0.06103515625,0.434827723014008,-0.6452833643604846,-0.6063417462691122,8.6875,35.0,7.1875
98.0,0.3662109375,-0.54931640625,0.06103515625,0.4323862422559282,-0.6462599566637165,-0.6030457472457045,10.0,32.0625,8.9375
98.5,-0.732421875,-0.1220703125,0.732421875,0.43397320474868,-0.6439405499435408,-0.6058534501174963,9.3125,35.3125,9.8125
99.0,0.30517578125,0.0,0.1220703125,0.4331186864833521,-0.641376995147557,-0.608905301065096,9.3125,35.0,12.0625
99.5,0.30517578125,-0.1220703125,0.0,0.4315317239906003,-0.640888698995941,-0.6068300424207281,10.0,33.9375,8.9375
100.0,0.244140625,-0.18310546875,0.1220703125,0.4322641682180242,-0.6421094393749809,-0.6076845606860561,10.6875,35.0,12.0625
100.5,-0.18310546875,-0.30517578125,0.06103515625,0.4332407605212561,-0.6445509201330607,-0.6058534501174963,11.0,32.8125,10.3125
101.0,3.0517578125,1.46484375,-0.3662109375,0.4382457960753196,-0.6480910672322764,-0.6031678212836085,9.3125,31.375,11.125
101.5,0.06103515625,1.03759765625,0.79345703125,0.4304330576494644,-0.6605426190984832,-0.618671224097415,10.0,33.1875,11.125
102.0,-0.8544921875,-0.30517578125,0.06103515625,0.4229865413373211,-0.6388134403515733,-0.6161076693014313,10.6875,32.8125,12.0625
102.5,-0.67138671875,0.06103515625,0.48828125,0.4259163182470168,-0.6366161076693014,-0.620136112552263,10.0,32.8125,10.75
103.0,-15.31982421875,26.0009765625,22.64404296875,0.4685201574755089,-0.6611529892880031,-0.5853450117496262,11.3125,29.1875,20.0
103.5,-1.220703125,-1.40380859375,0.0,0.4189580980864894,-0.6225775933103427,-0.6058534501174963,12.6875,30.6875,16.875
104.0,-9.09423828125,-12.26806640625,-4.5166015625,0.4383678701132236,-0.6012146366771447,-0.6693319498275704,9.3125,33.1875,17.3125
104.5,9.6435546875,-2.9296875,-22.64404296875,0.3901486251411481,-0.5081942197943052,-0.7516098513748588,9.3125,31.375,16.875
105.0,0.67138671875,0.06103515625,-1.03759765625,0.4137089144566179,-0.4273812067018647,-0.7856685079500717,11.3125,31.75,15.1875
105.5,-20.56884765625,-31.55517578125,39.48974609375,0.4055299539170507,-0.4821924497207556,-0.859157078768273,10.3125,29.1875,20.0
106.0,12.14599609375,54.13818359375,-66.34521484375,0.2802819910275582,-0.1998352000488296,-0.7874996185186316,-11.1875,31.0625,11.625
106.5,-12.20703125,74.15771484375,19.4091796875,0.9402142399365216,-0.3125095370342112,-0.6338084047975097,-4.75,31.0625,19.125
107.0,-40.22216796875,-114.68505859375,56.57958984375,0.7987304300057985,-0.336802270577105,-0.7071749015778069,16.4375,27.4375,22.25
107.5,49.98779296875,26.3671875,5.2490234375,0.0725119785149693,-0.228034302804651,-0.7092501602221748,12.375,26.3125,27.125
108.0,-1.89208984375,-1.953125,0.1220703125,0.3668324839014862,-0.3541367839594714,-0.8056886501663258,13.375,26.0,25.375
108.5,-1.52587890625,0.54931640625,-0.42724609375,0.3640247810296945,-0.3338724936674093,-0.868800927762688,13.0625,22.75,27.5625
109.0,0.42724609375,0.1220703125,0.30517578125,0.3552354503006073,-0.3424176763206885,-0.858424634540849,14.6875,24.125,25.8125
109.5,-0.244140625,-0.42724609375,-0.1220703125,0.3646351512192144,-0.3308206427198095,-0.858424634540849,12.0,24.5,25.8125
110.0,-0.3662109375,-0.30517578125,-0.9765625,0.3614612262337107,-0.3265480513931699,-0.8572038941618091,12.6875,25.25,26.6875
110.5,0.244140625,-0.3662109375,0.48828125,0.3629261146885586,-0.3288674581133457,-0.8612323374126407,13.375,23.75,26.6875
111.0,0.0,-0.18310546875,0.0,0.3621936704611346,-0.32593768120365,-0.8611102633747367,15.0625,24.875,24.875
111.5,0.18310546875,-0.30517578125,0.244140625,0.3624378185369427,-0.3254493850520341,-0.8640400402844325,13.0625,25.25,25.375
112.0,0.06103515625,-0.30517578125,0.1220703125,0.3603625598925748,-0.3212988677632984,-0.8617206335642568,14.375,22.0,22.6875
112.5,0.244140625,-0.18310546875,-0.06103515625,0.3607287820062868,-0.3238624225592822,-0.8646504104739524,13.6875,25.25,23.625
113.0,0.06103515625,0.1220703125,-0.1220703125,0.3593859675893429,-0.3254493850520341,-0.8681905575731681,13.0625,24.125,23.625
113.5,0.732421875,-0.30517578125,0.244140625,0.3628040406506546,-0.3210547196874904,-0.8647724845118564,14.375,21.625,27.5625
114.0,0.1220703125,0.0,0.18310546875,0.3592638935514389,-0.3223975341044343,-0.8629413739432966,13.375,25.25,25.375
114.5,0.18310546875,-0.3662109375,0.06103515625,0.358897671437727,-0.3220313119907224,-0.8634296700949126,14.0,25.625,27.5625
115.0,0.06103515625,-0.1220703125,0.06103515625,0.358531449324015,-0.3217871639149144,-0.8652607806634725,15.375,23.4375,26.1875
115.5,0.0,-0.1220703125,-0.1220703125,0.3568224127933592,-0.3202002014221625,-0.8663594470046083,12.6875,25.625,26.1875
116.0,0.1220703125,0.18310546875,-0.06103515625,0.3569444868312632,-0.3233741264076663,-0.8648945585497604,12.375,23.4375,27.5625
116.5,0.18310546875,0.06103515625,-0.1220703125,0.358653523361919,-0.3215430158391064,-0.8645283364360484,12.6875,28.875,27.125
117.0,17.9443359375,7.6904296875,-24.4140625,0.4113895077364422,-0.2089907528916287,-0.8181402020325327,-7.5,33.1875,14.75
117.5,-15.2587890625,18.49365234375,-4.8828125,0.955595568712424,-0.3393658253730888,-0.7113254188665425,6.3125,32.4375,15.1875
118.0,29.6630859375,-96.74072265625,110.107421875,0.760887478255562,-0.4792626728110599,-0.7115695669423505,20.5,33.1875,0.0625
118.5,16.7236328125,0.30517578125,3.11279296875,-0.0601825006866664,-0.6889858699301126,-0.5516525772881252,-2.75,32.4375,13.4375
119.0,-45.34912109375,75.50048828125,-118.95751953125,0.7171849726859341,-0.4931791131321146,-0.684469130527665,-4.75,34.3125,11.125
119.5,1.15966796875,-2.9296875,5.92041015625,0.7195043794061098,-0.3088473158970916,-0.5374919888912626,-7.8125,35.0,11.125
120.0,-11.5966796875,-1.52587890625,12.02392578125,0.8406018250068666,-0.3347270119327372,-0.5184484389782403,-5.8125,32.4375,10.3125
120.5,-7.99560546875,4.45556640625,26.9775390625,0.8615985595263528,-0.4160283211767937,-0.5184484389782403,17.0625,28.5,15.1875
121.0,-31.67724609375,-98.08349609375,95.88623046875,0.1834772789696951,-0.1883602404858546,-0.4482558671834468,23.875,25.625,16.875
121.5,-1.220703125,-23.49853515625,12.0849609375,-0.2590411084322642,-0.3017670216986602,-0.7918942838831752,18.0625,30.6875,18.625
122.0,28.1982421875,107.48291015625,-33.8134765625,0.0059816278572954,-0.4318979461043122,-0.6975310525833919,-0.4375,31.0625,19.125
122.5,15.9912109375,45.10498046875,-36.376953125,0.6903286843470565,-0.4389782403027436,-0.7201147495956297,14.0,25.625,22.6875
123.0,13.0615234375,27.83203125,0.67138671875,0.3161717581713309,-0.2804040650654622,-0.7187719351786859,12.6875,24.875,23.125
123.5,-0.3662109375,-2.01416015625,-0.67138671875,0.3623157444990387,-0.3709830011902219,-0.8440198980681783,12.375,25.25,22.25
124.0,-0.06103515625,-0.6103515625,0.1220703125,0.369518112735374,-0.3567003387554552,-0.8437757499923704,13.375,23.4375,28.0
124.5,-0.732421875,-0.244140625,-0.8544921875,0.3684194463942381,-0.3548692281868953,-0.8454847865230262,12.375,24.125,26.1875
125.0,0.91552734375,0.3662109375,0.0,0.3641468550675985,-0.3540147099215674,-0.8513443403424177,14.375,24.5,24.0
125.5,0.244140625,0.1220703125,0.0,0.3680532242805261,-0.3547471541489914,-0.847682119205298,12.375,24.875,27.125
126.0,0.06103515625,-0.42724609375,0.42724609375,0.3702505569627979,-0.3508407849360637,-0.8492690816980498,13.6875,26.0,28.5
126.5,0.1220703125,-0.42724609375,0.18310546875,0.3645130771813105,-0.3440046388134403,-0.8535416730246894,13.6875,25.625,26.1875
127.0,0.06103515625,0.0,0.1220703125,0.3706167790765099,-0.3452253791924802,-0.8518326364940336,12.6875,26.0,24.0
127.5,0.48828125,-0.42724609375,-0.79345703125,0.3670766319772942,-0.3380230109561449,-0.8556169316690573,13.0625,24.875,23.125
128.0,-0.3662109375,-0.18310546875,0.0,0.3674428540910062,-0.3387554551835688,-0.8546403393658254,13.0625,24.5,25.8125
128.5,0.18310546875,0.0,-0.06103515625,0.3711050752281258,-0.3381450849940489,-0.8529313028351695,13.375,24.5,24.4375
129.0,-0.9765625,-0.1220703125,-0.30517578125,0.3735465559862056,-0.3343607898190252,-0.8485366374706259,14.0,24.875,24.0
129.5,0.91552734375,-0.48828125,0.732421875,0.3676870021668141,-0.336680196539201,-0.8524430066835536,12.6875,24.125,28.0
130.0,0.54931640625,-0.18310546875,0.42724609375,0.3640247810296945,-0.3348490859706411,-0.8564714499343852,13.0625,23.75,23.625
130.5,0.06103515625,0.06103515625,0.1220703125,0.3663441877498703,-0.336558122501297,-0.8517105624561296,12.375,24.125,23.625
131.0,0.30517578125,-0.18310546875,0.3662109375,0.3665883358256783,-0.3449812311166723,-0.8559831537827692,12.6875,25.625,24.4375
131.5,0.0,0.0,-0.30517578125,0.3670766319772942,-0.3381450849940489,-0.8558610797448652,14.0,24.125,27.125
132.0,-0.3662109375,0.0,-0.18310546875,0.3651234473708304,-0.3360698263496811,-0.8565935239722892,14.375,26.6875,26.1875
132.5,0.1220703125,-0.30517578125,0.244140625,0.3680532242805261,-0.3343607898190252,-0.8579363383892331,14.0,23.4375,24.4375
133.0,0.30517578125,-0.1220703125,0.18310546875,0.3626819666127506,-0.3374126407666249,-0.8573259681997131,14.375,26.3125,27.125
133.5,1.0986328125,-0.42724609375,0.244140625,0.3643910031434065,-0.3308206427198095,-0.8562273018585772,12.6875,27.0625,27.5625
134.0,0.18310546875,-0.30517578125,-0.06103515625,0.3631702627643666,-0.337168492690817,-0.8563493758964812,13.6875,24.5,26.6875
134.5,0.48828125,-0.244140625,0.0,0.3640247810296945,-0.3393658253730888,-0.8564714499343852,12.0,23.4375,25.8125
135.0,-0.1220703125,0.0,-0.244140625,0.3640247810296945,-0.3344828638569292,-0.8562273018585772,13.375,24.875,24.0
135.5,0.0,-0.30517578125,0.1220703125,0.3643910031434065,-0.3336283455916013,-0.8562273018585772,12.6875,24.125,24.0
136.0,0.1220703125,-0.1220703125,0.06103515625,0.3637806329538865,-0.3396099734488967,-0.8557390057069613,13.6875,25.625,28.0625
136.5,0.30517578125,0.0,0.0,0.3653675954466384,-0.3320413830988494,-0.8557390057069613,13.6875,23.4375,28.875
137.0,0.42724609375,-0.1220703125,0.244140625,0.36939603869747,-0.3320413830988494,-0.8542741172521134,12.6875,24.125,23.125
137.5,0.18310546875,-0.244140625,0.0,0.3631702627643666,-0.3343607898190252,-0.8553727835932493,12.6875,25.25,26.6875
138.0,0.1220703125,-0.06103515625,0.18310546875,0.3634144108401745,-0.3360698263496811,-0.8568376720480971,13.0625,23.4375,27.125
138.5,0.06103515625,0.06103515625,-0.1220703125,0.3647572252571184,-0.3328959013641773,-0.8536637470625935,13.6875,24.125,28.0
139.0,0.42724609375,-0.18310546875,0.18310546875,0.3665883358256783,-0.3355815301980651,-0.8547624134037294,12.6875,24.875,22.6875
139.5,0.1220703125,0.18310546875,-0.1220703125,0.3686635944700461,-0.3397320474868007,-0.8595233008819849,21.4375,31.0625,13.4375
140.0,9.521484375,-87.0361328125,15.07568359375,0.0765404217658009,-0.4143192846461379,-0.8137455366679891,24.8125,30.6875,2.75
140.5,18.49365234375,4.57763671875,15.5029296875,-0.3650013733329264,-0.4764549699392681,-0.5954771568956572,-2.4375,35.0,13.4375
141.0,-27.4658203125,94.54345703125,-114.19677734375,0.5289468062379833,-0.6391796624652852,-0.750267036957915,-1.0625,31.0625,16.875
141.5,-25.32958984375,-33.14208984375,22.8271484375,0.8959013641773735,-0.3618274483474227,-0.5724051637318034,12.6875,25.625,23.625
142.0,-14.83154296875,22.03369140625,48.52294921875,0.2342600787377544,-0.1868953520310068,-0.6504104739524521,12.6875,27.4375,23.125
142.5,6.04248046875,2.0751953125,7.9345703125,0.3266701254310739,-0.4423963133640552,-0.8484145634327219,11.3125,27.0625,22.6875
143.0,15.625,7.2021484375,-13.00048828125,0.4212775048066652,-0.3225196081423383,-0.7840815454573199,11.0,24.125,24.0
143.5,-2.0751953125,-1.46484375,-0.79345703125,0.402356028931547,-0.3831904049806207,-0.8181402020325327,19.8125,20.875,25.375
144.0,-32.2265625,-50.537109375,38.51318359375,0.3614612262337107,-0.4636371959593493,-1.032135990478225,26.1875,24.5,20.0
144.5,-1.708984375,-23.4375,-18.6767578125,-0.3881954405346843,-0.1112094485305337,-0.8312021240882596,13.375,26.6875,22.25
145.0,62.3779296875,106.8115234375,22.216796875,0.3459578234199041,-0.4178594317453535,-1.0066225165562914,12.6875,27.0625,21.3125
145.5,-2.38037109375,1.89208984375,-3.72314453125,0.3989379558702353,-0.3509628589739677,-0.8355967894528031,-7.8125,31.75,9.8125
146.0,45.2880859375,75.1953125,-84.65576171875,0.6450392162846766,-0.3838007751701406,-0.5012359996337779,-9.5,29.1875,18.625
146.5,-10.498046875,22.88818359375,-20.20263671875,0.8637958922086245,-0.1132847071749015,-0.4008911404766991,-7.5,27.75,20.9375
147.0,14.0380859375,3.47900390625,-5.92041015625,0.8441419721060823,-0.2003234962004455,-0.4497207556382946,-6.8125,28.875,21.3125
147.5,2.0751953125,0.0,1.77001953125,0.8998077333903012,-0.1685842463454085,-0.4295785393841365,-9.5,29.1875,22.6875
148.0,-0.8544921875,-0.06103515625,-0.48828125,0.8856471449934386,-0.1481978820154423,-0.4323862422559282,-9.1875,27.75,18.625
148.5,-0.6103515625,-0.3662109375,0.3662109375,0.8871120334482864,-0.1501510666219062,-0.4329966124454482,-8.125,28.5,24.0
149.0,-2.0751953125,-1.77001953125,-3.41796875,0.9006622516556292,-0.1506393627735221,-0.4151738029114658,-7.5,27.75,21.3125
149.5,-0.244140625,0.67138671875,-0.244140625,0.8742942594683676,-0.1280556657612842,-0.4586321604052858,-8.5,27.75,20.9375
150.0,-0.3662109375,-0.79345703125,-0.54931640625,0.8784447767571032,-0.1331827753532517,-0.4495986816003906,12.6875,26.3125,28.0625
150.5,-50.4150390625,-122.49755859375,55.6640625,0.7591784417249061,-0.2188787499618518,-0.7866451002533036,12.0,24.125,25.375
151.0,29.60205078125,68.7255859375,-20.8740234375,0.3654896694845423,-0.2200994903408917,-0.792992950224311,13.375,26.6875,24.875
151.5,6.103515625,-1.77001953125,-6.9580078125,0.3765984069338053,-0.358531449324015,-0.8468276009399701,19.4375,32.4375,3.125
152.0,40.46630859375,-57.2509765625,2.3193359375,0.0938749351481673,-0.4082155827509384,-0.7784661397137363,25.1875,29.5625,-3.0
152.5,5.7373046875,3.41796875,30.8837890625,-0.2324289681691946,-0.7469710379345073,-0.5483565782647175,5.625,33.9375,10.3125
153.0,-22.15576171875,73.18115234375,-92.8955078125,0.2309640797143467,-0.7760246589556566,-0.7120578630939665,-3.8125,32.0625,11.625
153.5,-15.80810546875,10.43701171875,3.7841796875,0.8291268654438917,-0.4384899441511276,-0.5593432416760765,9.0,28.125,22.6875
154.0,-38.39111328125,-110.04638671875,30.517578125,0.771996215704825,-0.4522843104342784,-0.9073763237403484,5.625,30.6875,24.0
154.5,5.06591796875,23.49853515625,1.28173828125,0.1458784752952665,-0.2148503067110202,-0.8965117343668936,7.625,34.3125,18.25
155.0,16.78466796875,6.591796875,35.82763671875,0.5954771568956572,-0.3897824030274361,-0.7925046540726951,14.6875,23.75,25.375
155.5,-23.25439453125,23.4375,36.43798828125,0.3545030060731834,-0.3098239082003235,-0.7011932737205115,15.0625,24.125,26.6875
156.0,4.7607421875,-3.11279296875,-3.41796875,0.3681752983184301,-0.4188360240485854,-0.8113040559099094,14.6875,25.25,22.25
156.5,0.54931640625,-0.3662109375,0.732421875,0.3792840357676931,-0.4029663991210669,-0.8167973876155888,14.6875,25.25,20.4375
157.0,0.1220703125,-0.6103515625,-0.1220703125,0.3745231482894375,-0.4056520279549547,-0.8193609424115726,13.0625,26.0,22.6875
157.5,-0.06103515625,-0.1220703125,0.06103515625,0.379772331919309,-0.3968626972258675,-0.8209479049043245,12.0,25.625,22.6875
158.0,0.0,-0.18310546875,-0.06103515625,0.3767204809717093,-0.3983275856807153,-0.8205816827906125,13.375,24.5,21.75
158.5,-0.1220703125,-0.30517578125,0.18310546875,0.3765984069338053,-0.3964964751121555,-0.8229010895107883,12.6875,26.0,23.625
159.0,0.1220703125,-0.18310546875,0.06103515625,0.3769646290475173,-0.3971068453016754,-0.8219244972075563,15.0625,24.875,24.4375
159.5,-0.18310546875,-0.1220703125,0.244140625,0.3739127780999176,-0.391369365520188,-0.8197271645252846,12.375,26.0,23.625
160.0,-0.1220703125,-0.18310546875,0.0,0.3734244819483016,-0.3974730674153874,-0.8247322000793481,15.0625,24.875,26.1875
160.5,-0.42724609375,0.06103515625,-0.244140625,0.3762321848200934,-0.3961302529984435,-0.8219244972075563,14.375,26.3125,22.25
161.0,0.0,-0.18310546875,-0.48828125,0.3724478896450697,-0.3962523270363475,-0.8276619769890439,14.375,24.875,22.25
161.5,-0.06103515625,-0.18310546875,0.3662109375,0.3767204809717093,-0.3939329203161718,-0.8224127933591724,13.375,24.125,27.125
162.0,0.1220703125,-0.3662109375,0.244140625,0.3741569261757256,-0.3955198828089236,-0.82692953276162,13.0625,24.125,23.625
162.5,0.3662109375,-0.1220703125,0.06103515625,0.3735465559862056,-0.3932004760887478,-0.82570879238258,14.0,25.25,26.1875
163.0,0.48828125,-0.1220703125,0.06103515625,0.3731803338724936,-0.3928342539750358,-0.8211920529801324,14.6875,22.75,26.1875
163.5,0.0,-0.06103515625,0.0,0.3750114444410535,-0.3901486251411481,-0.8238776818140202,13.375,25.25,27.125
164.0,0.06103515625,-0.06103515625,0.0,0.3736686300241096,-0.3944212164677877,-0.826075014496292,13.375,24.5,26.1875
164.5,0.54931640625,0.06103515625,-0.06103515625,0.3725699636829737,-0.3984496597186193,-0.8292489394817957,14.375,25.625,23.625
165.0,0.244140625,0.06103515625,0.0,0.3719595934934537,-0.3977172154911954,-0.825464644306772,14.375,26.3125,24.4375
165.5,-0.1220703125,0.0,0.06103515625,0.3765984069338053,-0.3971068453016754,-0.8281502731406598,11.0,26.3125,26.1875
166.0,0.91552734375,1.3427734375,-1.15966796875,0.3875850703451643,-0.3941770683919797,-0.8294930875576036,-9.1875,31.75,14.75
166.5,27.587890625,59.9365234375,-102.1728515625,0.6806848353526413,-0.4024781029694509,-0.5995056001464888,24.125,29.5625,12.9375
167.0,21.17919921875,-78.125,118.10302734375,0.6762901699880978,-0.5456709494308298,-0.7107150486770226,14.0,29.1875,13.4375
167.5,7.8125,20.32470703125,-19.71435546875,-0.1009552293465987,-0.478164006469924,-0.6290475173192541,-2.4375,31.0625,20.9375
168.0,-45.10498046875,58.28857421875,-45.8984375,0.716574602496414,-0.4588763084810938,-0.6682332834864345,-2.75,28.125,23.125
168.5,15.869140625,10.68115234375,-17.88330078125,0.8772240363780633,-0.2354808191167943,-0.5833918271431623,9.3125,33.1875,12.5
169.0,61.6455078125,-65.185546875,45.7763671875,0.5465254676961577,-0.3444929349650563,-0.6893520920438245,9.6875,32.0625,16.0
169.5,-33.38623046875,5.31005859375,4.08935546875,0.4326303903317362,-0.4449598681600391,-0.6081728568376721,8.3125,32.0625,15.625
170.0,-1.15966796875,-0.1220703125,0.48828125,0.4406872768333995,-0.4984282967619861,-0.7445295571764275,11.0,31.375,18.25
170.5,1.03759765625,-0.42724609375,-0.06103515625,0.4372692037720878,-0.4906155583361308,-0.7318338572344126,7.625,32.4375,13.8125
171.0,-0.1220703125,-0.30517578125,0.30517578125,0.4434949797051912,-0.4908597064119388,-0.7340311899166845,8.3125,34.3125,6.6875
171.5,6.89697265625,1.52587890625,-5.55419921875,0.4613177892391735,-0.4992828150273141,-0.7444074831385236,9.3125,35.0,6.6875
172.0,-14.70947265625,11.29150390625,7.38525390625,0.5344401379436629,-0.6150090029602954,-0.5670339060640278,9.3125,33.5625,8.0625
172.5,-2.5634765625,-0.732421875,-0.18310546875,0.4537491988891262,-0.6871547593615528,-0.532609027375103,10.6875,34.6875,7.1875
173.0,0.8544921875,0.244140625,0.3662109375,0.4533829767754143,-0.6888637958922086,-0.5387127292703024,10.6875,35.0,10.3125
173.5,0.06103515625,-0.1220703125,0.244140625,0.4576555681020539,-0.6830042420728172,-0.5370036927396465,9.3125,35.6875,7.1875
174.0,0.0,0.0,-0.1220703125,0.456190679647206,-0.6821497238074893,-0.5382244331186865,10.0,33.5625,4.0
174.5,0.30517578125,-0.18310546875,0.244140625,0.4611957152012695,-0.6863002410962249,-0.5423749504074221,9.0,33.1875,5.8125
175.0,0.3662109375,0.18310546875,0.18310546875,0.4574114200262459,-0.6866664632099369,-0.5365153965880306,11.0,33.1875,8.4375
175.5,0.42724609375,0.06103515625,-0.244140625,0.4600970488601337,-0.6831263161107212,-0.5395672475356303,9.6875,35.3125,9.8125
176.0,0.30517578125,-0.30517578125,0.30517578125,0.4572893459883419,-0.684591204565569,-0.5379802850428785,11.3125,32.8125,11.625
176.5,0.06103515625,-0.1220703125,-0.18310546875,0.4594866786706137,-0.684347056489761,-0.5371257667775506,9.0,33.5625,7.1875
177.0,-1.46484375,0.244140625,1.15966796875,0.456068605609302,-0.673360393078402,-0.5418866542558062,9.3125,34.6875,6.6875
177.5,0.54931640625,-0.244140625,-0.06103515625,0.455824457533494,-0.6887417218543046,-0.5359050263985107,9.3125,34.6875,9.8125
178.0,-0.06103515625,-0.42724609375,0.3662109375,0.456678975798822,-0.6836146122623371,-0.5418866542558062,9.0,35.3125,10.3125
178.5,0.30517578125,-0.1220703125,0.0,0.4550920133060701,-0.6860560930204169,-0.5399334696493423,10.3125,33.5625,5.8125
179.0,0.42724609375,-0.06103515625,0.244140625,0.45631275368511,-0.684102908413953,-0.5387127292703024,11.3125,33.9375,9.8125
179.5,2.13623046875,0.06103515625,-0.79345703125,0.4547257911923582,-0.6766563921018097,-0.5376140629291666,10.0,34.3125,8.0625
180.0,0.06103515625,0.0,-0.3662109375,0.4537491988891262,-0.684347056489761,-0.5339518417920469,12.0,33.1875,11.625
180.5,0.48828125,-0.42724609375,0.1220703125,0.4542374950407422,-0.6853236487929929,-0.5410321359904782,8.6875,33.9375,9.8125
181.0,-0.06103515625,-0.30517578125,-0.18310546875,0.45631275368511,-0.6830042420728172,-0.5348063600573748,9.0,33.9375,8.0625
181.5,0.1220703125,0.06103515625,0.30517578125,0.4552140873439741,-0.6919156468398083,-0.5363933225501266,10.6875,33.5625,5.375
182.0,0.54931640625,-0.1220703125,0.06103515625,0.455824457533494,-0.6875209814752647,-0.5367595446638386,10.0,33.5625,8.9375
182.5,-0.1220703125,-0.18310546875,0.42724609375,0.4531388286996063,-0.685811944944609,-0.5337076937162389,9.6875,31.4375,5.8125
183.0,0.06103515625,-0.18310546875,0.18310546875,0.4537491988891262,-0.6836146122623371,-0.5340739158299509,10.6875,32.8125,7.1875
183.5,-0.06103515625,0.0,0.30517578125,0.4521622363963744,-0.685811944944609,-0.531998657185583,11.0,35.3125,5.375
184.0,0.244140625,-0.30517578125,0.1220703125,0.4544816431165502,-0.684224982451857,-0.5352946562089907,10.6875,32.4375,6.6875
184.5,0.1220703125,0.0,-0.06103515625,0.456068605609302,-0.6839808343760491,-0.5370036927396465,10.0,35.0,5.375
185.0,0.18310546875,-0.06103515625,-0.06103515625,0.4538712729270302,-0.6882534257026887,-0.5348063600573748,11.0,32.8125,8.9375
185.5,0.48828125,-0.06103515625,0.1220703125,0.45631275368511,-0.6872768333994568,-0.5361491744743186,9.3125,34.3125,10.75
186.0,0.3662109375,-0.18310546875,0.30517578125,0.4515518662068544,-0.6886196478164006,-0.5372478408154546,11.0,35.3125,11.625
186.5,-4.33349609375,1.03759765625,3.23486328125,0.4467909787285989,-0.7049775688955351,-0.5184484389782403,10.3125,35.3125,9.375
187.0,-1.28173828125,-0.8544921875,-0.48828125,0.4570451979125339,-0.6939909054841762,-0.5216223639637441,9.6875,35.0,8.4375
187.5,1.52587890625,-1.15966796875,1.953125,0.4727927488021485,-0.7146214178899503,-0.5103915524765771,10.0,34.3125,8.9375
188.0,-0.18310546875,-0.06103515625,-0.1220703125,0.4572893459883419,-0.695455793939024,-0.5232093264564959,9.6875,35.6875,11.125
188.5,-0.244140625,-0.18310546875,-0.42724609375,0.456678975798822,-0.6805627613147374,-0.5291909543137913,7.625,35.3125,8.0625
189.0,0.54931640625,-0.1220703125,0.18310546875,0.4539933469649342,-0.6921597949156163,-0.5308999908444472,10.3125,35.6875,9.375
189.5,0.06103515625,-0.42724609375,0.244140625,0.4555803094576861,-0.6888637958922086,-0.5282143620105594,10.0,35.3125,6.25
190.0,0.48828125,0.06103515625,0.244140625,0.455946531571398,-0.6902066103091525,-0.5249183629871517,10.6875,33.9375,7.625
190.5,0.1220703125,0.1220703125,0.48828125,0.4571672719504379,-0.6930143131809442,-0.5265053254799036,9.0,35.0,11.125
191.0,0.18310546875,-0.18310546875,0.1220703125,0.4552140873439741,-0.6941129795220802,-0.5278481398968474,17.75,32.8125,0.4375
191.5,16.9677734375,0.42724609375,-1.0986328125,0.4680318613238929,-0.7121799371318704,-0.5147862178411207,20.75,32.4375,-2.1875
192.0,6.40869140625,-15.93017578125,65.24658203125,0.020752586443678,-0.7492904446546831,-0.4282357249671926,-11.1875,30.6875,13.4375
192.5,-55.419921875,5.79833984375,-158.99658203125,0.3227637562181463,-0.6541947691274758,-0.641010773033845,-6.8125,32.4375,14.25
193.0,-11.77978515625,13.3056640625,-22.8271484375,0.9292275765251624,-0.2652668843653676,-0.5597094637897885,19.125,33.5625,4.9375
193.5,32.5927734375,-71.59423828125,86.7919921875,0.7420880764183477,-0.434705648976104,-0.6772667622913296,13.0625,35.0,10.75
194.0,18.61572265625,2.13623046875,32.53173828125,0.0518814661091952,-0.6748252815332499,-0.5921811578722496,-7.5,32.8125,12.5
194.5,-24.71923828125,25.146484375,-95.8251953125,0.4624164555803094,-0.6071962645344401,-0.674336985381634,-12.875,28.875,14.25
195.0,24.7802734375,24.23095703125,-31.25,0.8403576769310587,-0.2523270363475448,-0.576189458906827,9.3125,30.3125,16.4375
195.5,-0.48828125,-16.66259765625,16.29638671875,0.8716086306344798,-0.1684621723075045,-0.5776543473616749,15.0625,31.375,18.25
196.0,-8.48388671875,-46.630859375,77.45361328125,0.2855311746574297,-0.3678090762047181,-0.7690664387951293,9.3125,33.9375,12.0625
196.5,5.67626953125,27.9541015625,-51.20849609375,0.3610950041199988,-0.620014038514359,-0.9160435804315316,9.6875,31.375,13.8125
197.0,-3.662109375,0.67138671875,5.2490234375,0.4599749748222297,-0.5479903561510056,-0.6794640949736015,9.6875,33.5625,14.25
197.5,-2.86865234375,-1.52587890625,-0.06103515625,0.4470351268044069,-0.5377361369670706,-0.7004608294930875,9.6875,31.375,16.4375
198.0,-2.3193359375,-0.18310546875,-0.1220703125,0.4436170537430952,-0.5421308023316141,-0.706686605426191,9.6875,32.4375,16.4375
198.5,-1.46484375,-0.48828125,0.06103515625,0.4426404614398633,-0.5254066591387676,-0.7036347544785913,10.0,35.3125,13.8125
199.0,-0.06103515625,-0.42724609375,0.18310546875,0.4414197210608234,-0.5298013245033113,-0.7031464583269753,-10.1875,29.9375,12.9375
199.5,-42.90771484375,23.37646484375,-56.884765625,0.5631275368511002,-0.1909237952818384,-0.6010925626392407,18.75,31.375,6.25
200.0,-10.986328125,-47.91259765625,56.82373046875,0.8775902584917753,-0.3139744254890591,-0.6394238105410932,24.125,31.75,1.8125
200.5,45.2880859375,-41.9921875,84.9609375,0.0109866634113589,-0.6563921018097476,-0.6572466200750755,-4.4375,33.9375,12.5
201.0,-11.77978515625,25.20751953125,-60.60791015625,-0.0887478255561998,-0.5938901944029054,-0.5620288705099643,-13.5625,26.6875,16.0
201.5,0.42724609375,35.400390625,-96.13037109375,0.868923001800592,-0.4193243202002014,-0.6256294442579424,0.5625,28.125,26.6875
202.0,-2.3193359375,-103.69873046875,-16.7236328125,0.935331278420362,-0.0162358470412305,-0.8495132297738578,-9.1875,27.4375,20.0
202.5,8.60595703125,16.845703125,6.8359375,0.0676290169988097,-0.0915555284279915,-0.8105716116824855,-4.4375,33.9375,18.25
203.0,-49.1943359375,46.81396484375,56.0302734375,0.7593005157628101,0.0191656239509262,-0.7743156224250007,6.0,38.25,13.4375
203.5,62.68310546875,-25.146484375,44.73876953125,0.7354960783715323,-0.4569231238746299,-0.7890865810113834,7.625,35.0,12.0625
204.0,-23.681640625,-7.38525390625,8.6669921875,0.5362712485122226,-0.5851008636738182,-0.5494552446058535,8.6875,35.0,15.1875
204.5,-3.90625,-1.52587890625,1.3427734375,0.4723044526505325,-0.5720389416180913,-0.631122775963622,6.9375,34.6875,12.0625
205.0,-5.92041015625,-7.4462890625,-6.53076171875,0.4699850459303568,-0.5372478408154546,-0.684835352641377,10.3125,35.0,7.625
205.5,0.79345703125,-2.13623046875,1.15966796875,0.456190679647206,-0.5257728812524797,-0.7050996429334391,10.6875,32.4375,9.375
206.0,16.66259765625,24.84130859375,13.24462890625,0.4754783776360362,-0.6100039674062319,-0.5355388042847987,6.3125,35.6875,12.5
206.5,0.18310546875,-1.64794921875,-0.244140625,0.4716940824610126,-0.7031464583269753,-0.521011993774224,2.9375,35.3125,16.4375
207.0,-1.220703125,3.41796875,-25.93994140625,0.4503311258278146,-0.5793633838923307,-0.6766563921018097,4.625,32.8125,13.8125
207.5,-1.64794921875,-1.5869140625,0.8544921875,0.5595873897518845,-0.4181035798211615,-0.6792199468977935,2.875,31.75,13.8125
208.0,0.06103515625,-2.197265625,4.08935546875,0.4906155583361308,-0.5020905178991059,-0.6720175786614582,0.5625,32.4375,11.625
208.5,4.39453125,2.8076171875,-11.962890625,0.5306558427686392,-0.4874416333506272,-0.673970763267922,2.25,32.8125,15.625
209.0,-0.3662109375,-0.732421875,-0.3662109375,0.5373699148533586,-0.4818262276070437,-0.6699423200170904,2.875,36.0625,9.8125
209.5,4.8828125,1.64794921875,1.953125,0.5645924253059481,-0.5045319986571856,-0.6859340189825129,4.25,35.3125,11.625
210.0,3.23486328125,1.52587890625,-1.5869140625,0.5313882869960631,-0.478530228583636,-0.7016815698721275,0.1875,35.0,12.0625
210.5,0.91552734375,2.44140625,0.1220703125,0.5456709494308298,-0.4663228247932371,-0.6797082430494095,2.875,33.5625,12.5
211.0,-1.52587890625,-1.03759765625,0.0,0.5553147984252449,-0.4613177892391735,-0.6725058748130741,2.875,33.9375,12.5
211.5,-0.1220703125,-1.89208984375,0.0,0.5526291695913571,-0.4817041535691397,-0.6831263161107212,1.9375,36.0625,12.5
212.0,1.5869140625,0.91552734375,0.3662109375,0.5468916898098697,-0.4776757103183081,-0.6801965392010254,1.5625,35.6875,10.75
212.5,0.732421875,0.54931640625,0.1220703125,0.543107394634846,-0.4682760093997009,-0.6722617267372661,3.25,32.4375,13.8125
213.0,-2.50244140625,0.9765625,1.220703125,0.5195471053193762,-0.4774315622425,-0.6767784661397137,3.9375,34.3125,15.625
213.5,-1.40380859375,1.3427734375,1.708984375,0.5256508072145757,-0.4815820795312357,-0.6759239478743858,3.5625,37.1875,9.8125
214.0,-1.0986328125,-1.953125,-0.6103515625,0.5289468062379833,-0.4621723075045015,-0.6828821680349132,3.25,36.8125,12.0625
214.5,2.62451171875,-0.18310546875,-1.220703125,0.5254066591387676,-0.4939115573595385,-0.6981414227729118,0.875,30.6875,14.75
215.0,-5.79833984375,0.732421875,-1.03759765625,0.5204016235847041,-0.488662373729667,-0.6725058748130741,2.25,35.6875,12.0625
215.5,-0.1220703125,-1.0986328125,-0.732421875,0.5204016235847041,-0.4935453352458266,-0.6751915036469619,3.25,35.3125,13.8125
216.0,1.52587890625,-1.40380859375,3.7841796875,0.521134067812128,-0.4824365977965636,-0.6576128421887875,2.25,35.3125,14.75
216.5,-2.685546875,-0.30517578125,-0.8544921875,0.5315103610339671,-0.4940336313974425,-0.6894741660817285,3.25,34.3125,12.0625
217.0,2.99072265625,1.64794921875,0.1220703125,0.5233314004943999,-0.4864650410473952,-0.684469130527665,2.9375,34.3125,12.5
217.5,1.708984375,0.6103515625,-1.03759765625,0.5293130283516954,-0.4976958525345622,-0.684835352641377,2.9375,33.1875,14.75
218.0,5.126953125,1.64794921875,-2.197265625,0.521866512039552,-0.5008697775200659,-0.7005829035309915,2.25,35.6875,13.8125
218.5,-0.6103515625,-0.18310546875,-0.1220703125,0.5250404370250557,-0.4941557054353465,-0.673360393078402,3.25,31.75,13.4375
219.0,-1.0986328125,2.8076171875,-3.2958984375,0.5461592455824458,-0.5019684438612018,-0.6915494247260964,2.625,33.1875,14.75
219.5,3.90625,-1.708984375,-0.42724609375,0.5140537736136968,-0.4924466689046907,-0.6993621631519517,2.25,35.3125,12.0625
220.0,-0.1220703125,0.91552734375,-3.23486328125,0.5304116946928312,-0.499526963103122,-0.6804406872768334,2.875,32.4375,12.5
220.5,0.3662109375,-1.3427734375,1.0986328125,0.5315103610339671,-0.5062410351878415,-0.7040009765923032,3.25,34.6875,14.75
221.0,1.708984375,-0.9765625,-1.220703125,0.5299233985412153,-0.4478896450697348,-0.6450392162846766,5.3125,34.6875,12.5
221.5,6.8359375,0.30517578125,2.86865234375,0.5162511062959685,-0.4754783776360362,-0.6997283852656636,-8.5,31.0625,4.9375
222.0,-28.4423828125,-81.60400390625,22.76611328125,0.565202795495468,-0.6429639576403089,-0.9398480178228096,8.6875,33.1875,16.875
222.5,20.8740234375,150.08544921875,-79.04052734375,0.8175298318430128,-0.5830256050294503,-0.7295144505142369,2.625,35.6875,12.9375
223.0,-18.24951171875,-122.802734375,75.5615234375,0.5191808832056642,-0.358043153172399,-0.6642048402356029,6.0,35.6875,13.4375
223.5,11.8408203125,21.42333984375,-25.57373046875,0.5830256050294503,-0.6439405499435408,-0.8728293710135197,2.625,33.9375,15.1875
224.0,-5.37109375,-1.52587890625,2.74658203125,0.5294351023895993,-0.5072176274910734,-0.6808069093905453,4.25,33.1875,9.8125
224.5,0.79345703125,0.244140625,0.67138671875,0.5197912533951842,-0.4759666737876522,-0.6867885372478408,4.25,34.6875,10.3125
225.0,1.708984375,0.244140625,1.03759765625,0.5341959898678549,-0.5077059236426893,-0.6893520920438245,3.9375,33.5625,10.75
225.5,-0.18310546875,-1.77001953125,7.32421875,0.5118564409314249,-0.4963530381176183,-0.673238319040498,6.625,32.8125,14.25
226.0,10.7421875,-1.220703125,-4.94384765625,0.5164952543717765,-0.5427411725211341,-0.6935026093325602,4.9375,34.3125,13.8125
226.5,3.2958984375,-2.38037109375,0.244140625,0.5258949552903837,-0.5215002899258401,-0.685689870906705,3.25,34.3125,15.1875
227.0,3.72314453125,0.54931640625,-3.662109375,0.5199133274330882,-0.50038148136845,-0.6776329844050416,5.3125,33.9375,13.4375
227.5,-3.173828125,0.79345703125,3.47900390625,0.4965971861934263,-0.5042878505813776,-0.6675008392590106,4.25,34.6875,14.75
228.0,-7.87353515625,-1.8310546875,7.080078125,0.5048982207708975,-0.4729148228400525,-0.6211127048554949,4.9375,34.3125,11.625
228.5,0.0,-1.5869140625,-0.244140625,0.5310220648823512,-0.4946440015869625,-0.6557817316202277,3.25,33.1875,14.25
229.0,5.55419921875,4.5166015625,2.62451171875,0.499893185216834,-0.5172276985992004,-0.6772667622913296,3.9375,37.5625,11.625
229.5,-3.90625,-0.732421875,1.5869140625,0.521988586077456,-0.5094149601733451,-0.641132847071749,2.875,32.8125,12.0625
230.0,-4.5166015625,-1.77001953125,1.0986328125,0.5533616138187811,-0.5102694784386731,-0.6259956663716544,2.9375,35.0,12.5
230.5,-1.52587890625,2.62451171875,-2.5634765625,0.5816827906125065,-0.5062410351878415,-0.6113467818231757,1.9375,33.9375,12.5
231.0,-0.79345703125,0.06103515625,-0.67138671875,0.5488448744163335,-0.4882961516159551,-0.6559038056581317,3.9375,35.6875,15.1875
231.5,0.06103515625,-0.54931640625,0.244140625,0.5599536118655964,-0.4882961516159551,-0.6546830652790918,3.25,33.9375,12.9375
232.0,-0.06103515625,0.18310546875,0.1220703125,0.5583666493728446,-0.4847560045167394,-0.6537064729758598,1.9375,35.3125,10.3125
232.5,0.1220703125,-0.1220703125,0.244140625,0.5571459089938048,-0.4876857814264351,-0.6554155095065157,3.5625,33.5625,16.0
233.0,-0.244140625,-0.42724609375,0.0,0.5598315378276925,-0.4807275612659077,-0.6554155095065157,3.25,32.4375,12.5
233.5,-0.06103515625,-0.244140625,0.1220703125,0.5611743522446364,-0.4831690420239875,-0.6549272133548998,1.5625,34.6875,11.625
234.0,0.244140625,-0.1220703125,0.3662109375,0.5601977599414044,-0.4801171910763878,-0.6579790643024994,1.25,34.3125,12.0625
234.5,-0.06103515625,-0.30517578125,0.0,0.5588549455244606,-0.4815820795312357,-0.6591998046815394,3.5625,34.6875,17.3125
235.0,0.54931640625,0.3662109375,-0.6103515625,0.554094058046205,-0.4798730430005798,-0.6584673604541155,17.375,33.1875,4.9375
235.5,0.06103515625,-0.18310546875,0.1220703125,0.5558030945768608,-0.4900051881466109,-0.6612750633259071,24.125,28.125,3.125
236.0,16.4794921875,-75.439453125,70.1904296875,0.227546006653035,-0.5826593829157384,-0.7676015503402813,-5.4375,34.6875,8.0625
236.5,10.7421875,-6.16455078125,5.859375,-0.3017670216986602,-0.620136112552263,-0.5843684194463943,-16.9375,27.75,6.6875
237.0,-43.212890625,92.529296875,-176.57470703125,0.7016815698721275,-0.6456495864741966,-0.7693105868709372,3.25,28.875,24.4375
237.5,-13.18359375,8.056640625,10.7421875,0.9439985351115452,-0.1601611377300332,-0.4222540971098971,11.0,29.1875,20.4375
238.0,10.43701171875,-147.216796875,16.29638671875,0.4600970488601337,0.0023194067201757,-0.6809289834284493,-4.75,33.9375,15.625
238.5,14.404296875,31.79931640625,-13.12255859375,-0.3294778283028657,-0.3219092379528184,-0.9043244727927487,21.4375,31.4375,7.1875
239.0,8.1787109375,104.98046875,-20.01953125,0.6067079683828241,-0.0777611621448408,-0.6830042420728172,25.875,31.375,0.0625
239.5,41.44287109375,-80.50537109375,115.1123046875,0.303964354380932,-0.6371044038209174,-0.9035920285653248,-14.625,26.6875,15.1875
240.0,-7.2021484375,-5.4931640625,-17.76123046875,-0.3713492233039338,-0.5520187994018372,-0.6007263405255288,-8.125,33.9375,12.5
240.5,-96.5576171875,64.88037109375,-185.24169921875,0.6490676595355083,-0.3509628589739677,-0.8540299691763055,16.0625,32.0625,15.625
241.0,-33.0810546875,-43.212890625,85.693359375,0.8413342692342906,-0.1468550675984984,-0.7574694051942503,12.6875,28.5,18.25
241.5,-47.79052734375,-37.17041015625,109.92431640625,0.39112521744438,-0.4472792748802148,-0.7375713370159002,22.125,24.5,22.25
242.0,-28.3203125,10.25390625,8.056640625,0.4270149845881527,-0.4839014862514115,-0.7044892727439191,19.125,26.6875,22.6875
242.5,-53.3447265625,-94.42138671875,27.40478515625,0.1604052858058412,-0.2314523758659627,-0.8536637470625935,9.6875,28.5,22.6875
243.0,6.89697265625,39.85595703125,-9.1552734375,-0.0924100466933195,-0.2989593188268685,-0.881252479628895,11.3125,29.1875,21.75
243.5,19.775390625,11.5966796875,-17.08984375,0.4006469924008911,-0.3962523270363475,-0.9054231391338848,11.0,28.5,23.125
244.0,7.50732421875,1.220703125,3.7841796875,0.402233954893643,-0.3973509933774834,-0.8205816827906125,10.3125,28.125,19.5625
244.5,0.3662109375,-0.18310546875,-0.42724609375,0.3990600299081392,-0.3969847712637714,-0.8114261299478134,10.3125,28.875,20.0
245.0,-0.30517578125,0.06103515625,0.18310546875,0.3919797357097079,-0.3986938077944273,-0.815210425122837,9.6875,30.6875,19.5625
245.5,-0.244140625,0.06103515625,-0.42724609375,0.3935666982024598,-0.4040650654622028,-0.8121585741752373,11.6875,28.5,22.25
246.0,-0.79345703125,-0.42724609375,-0.30517578125,0.3950315866573076,-0.3973509933774834,-0.8089846491897336,11.3125,28.125,22.25
246.5,0.30517578125,-0.3662109375,0.42724609375,0.391369365520188,-0.402233954893643,-0.815698721274453,10.3125,27.0625,16.875
247.0,0.18310546875,-0.30517578125,0.0,0.3897824030274361,-0.3971068453016754,-0.8146000549333171,10.3125,28.5,23.625
247.5,0.244140625,0.1220703125,-0.1220703125,0.3897824030274361,-0.3963744010742515,-0.8178960539567247,10.3125,31.0625,23.625
248.0,0.0,0.0,0.18310546875,0.3903927732169561,-0.3953978087710196,-0.815820795312357,10.6875,27.75,23.125
248.5,0.3662109375,-0.244140625,0.06103515625,0.3853877376628925,-0.3958861049226356,-0.8132572405163732,11.0,28.5,25.375
249.0,0.18310546875,-0.244140625,0.244140625,0.3870967741935484,-0.3986938077944273,-0.8191167943357647,12.6875,28.5,19.5625
249.5,-0.244140625,0.0,-0.1220703125,0.3900265511032441,-0.4033326212347788,-0.8177739799188207,8.6875,33.5625,20.0
250.0,4.5166015625,-3.35693359375,-1.77001953125,0.380016479995117,-0.3880733664967803,-0.8146000549333171,5.625,31.375,20.0
250.5,7.75146484375,-9.94873046875,-22.27783203125,0.423352763451033,-0.4172490615558336,-0.7990966521195105,6.9375,32.8125,19.125
251.0,2.25830078125,0.42724609375,-5.55419921875,0.4382457960753196,-0.3950315866573076,-0.8070314645832698,5.3125,30.6875,16.875
251.5,-0.79345703125,1.953125,-1.52587890625,0.4603411969359416,-0.3730582598345897,-0.8133793145542771,6.9375,32.8125,18.625
252.0,0.732421875,0.30517578125,-0.244140625,0.4438612018189031,-0.3763542588579974,-0.7992187261574145,6.3125,32.4375,18.25
252.5,1.15966796875,0.30517578125,-0.42724609375,0.4463026825769829,-0.3814813684499649,-0.793603320413831,8.0,28.125,22.6875
253.0,-0.18310546875,-0.18310546875,0.06103515625,0.445692312387463,-0.3784295175023652,-0.7921384319589831,6.625,30.6875,17.3125
253.5,-0.30517578125,0.54931640625,0.18310546875,0.4544816431165502,-0.380260628070925,-0.793603320413831,7.3125,31.75,19.5625
254.0,-17.15087890625,-5.06591796875,2.8076171875,0.4246955778679769,-0.369273964659566,-0.7593005157628101,6.625,31.75,21.3125
254.5,0.6103515625,0.0,-0.06103515625,0.4500869777520065,-0.3986938077944273,-0.7964110232856227,9.0,30.3125,16.0
255.0,0.1220703125,0.06103515625,0.244140625,0.4497207556382946,-0.3901486251411481,-0.7903073213904233,5.625,32.8125,17.3125
255.5,0.42724609375,-0.1220703125,0.3662109375,0.4497207556382946,-0.3856318857387005,-0.7887203588976714,5.3125,30.6875,22.25
256.0,0.244140625,-0.1220703125,0.0,0.445692312387463,-0.3874629963072603,-0.7920163579210792,6.625,33.9375,19.125
256.5,0.8544921875,-0.06103515625,0.30517578125,0.4430066835535752,-0.391369365520188,-0.7922605059968871,6.0,33.9375,19.125
257.0,-0.48828125,-0.244140625,0.1220703125,0.4445936460463271,-0.3870967741935484,-0.7889645069734794,6.9375,31.75,16.0
257.5,4.5166015625,0.3662109375,-1.3427734375,0.4698629718924528,-0.412732322153386,-0.7846919156468398,7.3125,32.8125,15.625
258.0,3.7841796875,1.708984375,1.77001953125,0.4492324594866786,-0.4206671346171453,-0.772118289742729,7.3125,32.4375,20.0
258.5,-2.62451171875,-2.0751953125,-1.3427734375,0.4589983825189977,-0.4279915768913846,-0.7777336954863124,6.0,31.0625,18.25
259.0,-2.86865234375,0.18310546875,2.3193359375,0.4691305276650288,-0.4307992797631764,-0.7550279244361705,5.625,31.375,16.0
259.5,1.03759765625,-0.3662109375,-5.37109375,0.4394665364543595,-0.4151738029114658,-0.782006286812952,3.5625,32.8125,16.875
260.0,2.01416015625,0.244140625,0.8544921875,0.4620502334665975,-0.4311655018768883,-0.7696768089846492,6.3125,32.4375,17.8125
260.5,-1.46484375,-3.2958984375,-7.568359375,0.4803613391521958,-0.380016479995117,-0.7553941465498825,6.3125,31.375,18.25
261.0,-3.23486328125,-2.25830078125,2.13623046875,0.4675435651722769,-0.401623584704123,-0.7793206579790644,4.9375,33.1875,20.0
261.5,-0.67138671875,0.06103515625,0.42724609375,0.4615619373149815,-0.3872188482314523,-0.7798089541306803,6.625,30.3125,21.75
262.0,-1.3427734375,-0.18310546875,0.79345703125,0.467787713248085,-0.3914914395580919,-0.771141697439497,5.625,32.0625,17.8125
262.5,0.48828125,0.0,0.0,0.466811120944853,-0.3955198828089236,-0.7790765099032563,4.625,31.375,17.3125
263.0,0.732421875,-0.1220703125,-0.06103515625,0.4651020844141972,-0.3939329203161718,-0.7815179906613361,6.0,32.0625,17.8125
263.5,0.18310546875,-0.244140625,0.42724609375,0.467421491134373,-0.3942991424298837,-0.7743156224250007,6.0,31.375,19.5625
264.0,0.42724609375,-0.18310546875,0.1220703125,0.467055269020661,-0.3934446241645558,-0.7811517685476241,6.3125,34.3125,17.8125
264.5,0.0,-0.30517578125,0.18310546875,0.4596087527085177,-0.3938108462782678,-0.7776116214484085,6.625,34.3125,16.875
265.0,0.0,-0.3662109375,0.18310546875,0.4589983825189977,-0.3960081789605396,-0.7846919156468398,6.3125,33.1875,20.9375
265.5,0.06103515625,0.0,0.1220703125,0.4615619373149815,-0.3897824030274361,-0.7813959166234321,11.3125,32.4375,16.0
266.0,-0.54931640625,-0.3662109375,0.1220703125,0.4696188238166447,-0.3985717337565233,-0.7777336954863124,20.75,31.75,0.0625
266.5,21.240234375,-15.93017578125,20.81298828125,0.4387340922269356,-0.4843897824030274,-0.8883327738273262,-5.4375,34.3125,7.1875
267.0,41.3818359375,-51.8798828125,37.04833984375,-0.1358684041871395,-0.4632709738456373,-0.6544389172032838,-11.1875,31.0625,4.0
267.5,-25.2685546875,33.50830078125,-114.501953125,0.010742515335551,-0.3982055116428113,-0.5254066591387676,-5.125,34.3125,12.5
268.0,-26.67236328125,12.14599609375,4.57763671875,0.935819574571978,-0.3546250801110874,-0.5196691793572802,11.6875,30.6875,20.9375
268.5,48.27880859375,-38.0859375,-13.85498046875,0.9502243110446486,-0.3617053743095187,-0.6402783288064211,-13.25,28.125,13.4375
269.0,8.36181640625,-53.7109375,35.64453125,-0.1375774407177953,-0.1134067812128055,-0.7644276253547777,-12.5625,27.0625,16.0
269.5,58.89892578125,187.43896484375,-96.435546875,0.8747825556199835,-0.358043153172399,-0.8661152989288003,-5.8125,22.375,29.8125
270.0,-35.82763671875,4.8828125,-14.83154296875,0.880275887325663,-0.1173131504257332,-0.4279915768913846,-4.75,18.75,31.1875
270.5,-53.89404296875,0.244140625,30.76171875,0.8647724845118564,-0.1005890072328867,-0.4491103854487747,-5.8125,18.375,31.1875
271.0,-21.05712890625,-3.7841796875,5.859375,0.9217810602130192,-0.0109866634113589,-0.4004028443250831,6.9375,27.4375,24.4375
271.5,3.2958984375,-3.5400390625,-0.8544921875,0.9035920285653248,-0.0003662221137119,-0.423841059602649,14.375,25.625,23.125
272.0,10.6201171875,-90.087890625,-7.6904296875,0.8425550096133305,0.0463881344035157,-0.6389355143894773,12.0,29.1875,20.0
272.5,-55.0537109375,-48.4619140625,4.33349609375,0.1676076540421766,-0.2445142979216895,-0.911893063142796,9.0,28.5,17.3125
273.0,2.44140625,-4.94384765625,-1.5869140625,0.0067140720847193,-0.173467207861568,-1.0613116855372784,14.375,34.6875,7.625
273.5,25.20751953125,37.7197265625,-31.92138671875,0.3505966368602558,-0.271736808374279,-1.0580156865138706,16.0625,34.3125,5.8125
274.0,67.93212890625,45.10498046875,44.43359375,0.2246162297433393,-0.5929136020996735,-0.7368388927884763,0.875,32.8125,21.3125
274.5,-1.52587890625,-5.615234375,6.9580078125,0.2410962248603778,-0.7435529648731956,-0.5849787896359142,-7.1875,26.3125,22.6875
275.0,-45.22705078125,33.87451171875,-59.08203125,0.4250617999816889,-0.5699636829737236,-0.7300027466658529,-6.5,26.0,22.6875
275.5,-47.05810546875,103.02734375,13.85498046875,0.9475386822107608,-0.282113101596118,-0.630512405774102,8.3125,26.3125,27.5625
276.0,-0.30517578125,3.96728515625,-5.55419921875,0.9300820947904904,-0.1439252906888027,-0.3919797357097079,0.875,31.0625,18.25
276.5,38.330078125,-89.111328125,-15.31982421875,0.7701651051362651,-0.043214209418012,-0.6832483901486252,-7.8125,26.3125,18.25
277.0,-2.01416015625,-23.0712890625,17.27294921875,0.1259804071169164,-0.0524918362987151,-0.8059327982421338,-8.8125,30.3125,23.125
277.5,-59.14306640625,93.68896484375,-22.94921875,1.0334788048951689,-0.1278115176854762,-0.7320780053102206,-8.125,25.25,26.6875
278.0,-0.30517578125,-1.3427734375,-1.40380859375,0.902493362224189,-0.0928983428449354,-0.4174932096316416,15.0625,33.5625,13.4375
278.5,-3.41796875,-4.33349609375,-2.44140625,0.8744163335062716,-0.0673848689230018,-0.4732810449537644,25.1875,25.625,5.8125
279.0,3.11279296875,-66.95556640625,33.8134765625,0.7995849482711265,-0.0738547929319132,-0.7397686696981719,16.4375,31.375,12.9375
279.5,42.48046875,8.23974609375,64.39208984375,0.0614032410657063,-0.7142551957762383,-0.6134220404675436,-5.8125,30.6875,16.875
280.0,-0.244140625,2.86865234375,-5.37109375,-0.1766411328470717,-0.6937467574083682,-0.4306772057252723,-0.0625,30.6875,21.75
280.5,-42.6025390625,17.2119140625,-120.42236328125,0.8164311655018769,-0.3330179754020813,-1.0528885769219032,21.125,29.9375,7.1875
281.0,-27.28271484375,9.46044921875,6.16455078125,0.9027375102999968,-0.0601825006866664,-0.641010773033845,10.3125,31.0625,24.0
281.5,26.4892578125,-75.62255859375,91.30859375,0.2951750236518448,-0.304086428418836,-0.7490462965788751,-2.0625,32.8125,15.625
282.0,-44.677734375,1.0986328125,-25.93994140625,0.0695822016052735,-0.6013367107150487,-0.7264625995666372,11.3125,37.5625,5.8125
282.5,14.46533203125,90.9423828125,-77.880859375,0.6347849971007415,-0.3657338175603503,-0.760887478255562,13.0625,33.5625,6.6875
283.0,50.4150390625,-40.34423828125,82.21435546875,0.4427625354777673,-0.5506759849848933,-0.565080721457564,12.375,32.0625,9.375
283.5,-12.0849609375,7.568359375,11.1083984375,0.4257942442091128,-0.5704519791253395,-0.4810937833796197,6.0,33.5625,11.625
284.0,-2.0751953125,-4.57763671875,-0.06103515625,0.3554795983764153,-0.7363505966368602,-0.5714285714285714,-13.9375,28.875,8.4375
284.5,-6.04248046875,-15.19775390625,-24.7802734375,0.4211554307687613,-0.5724051637318034,-0.6875209814752647,-9.875,29.9375,15.1875
285.0,-14.0380859375,2.13623046875,-45.10498046875,0.542985320596942,-0.3481551561021759,-0.6977752006591998,11.0,28.5,25.375
285.5,-12.75634765625,26.85546875,8.056640625,0.9057893612475968,-0.2147282326731162,-0.4325083162938322,-1.375,30.6875,19.5625
286.0,-73.79150390625,-193.42041015625,17.822265625,0.8658711508529924,-0.1452681051057466,-0.8574480422376172,-8.8125,29.1875,16.4375
286.5,6.28662109375,43.212890625,-13.671875,-0.0229499191259498,-0.1058381908627582,-0.8921170690023499,8.0,33.9375,12.5
287.0,-3.35693359375,113.70849609375,6.7138671875,0.8355967894528031,-0.2548905911435285,-0.8225348673970764,6.3125,35.6875,16.0
287.5,22.39990234375,-69.82421875,59.6923828125,0.7468489638966033,-0.4243293557542649,-0.7588122196111942,7.3125,33.5625,15.625
288.0,-49.86572265625,-2.25830078125,15.2587890625,0.5185705130161443,-0.5035554063539537,-0.7519760734885708,6.3125,33.9375,16.4375
288.5,-2.13623046875,-1.28173828125,-1.46484375,0.4569231238746299,-0.5055085909604174,-0.728171636097293,7.625,30.6875,18.25
289.0,-0.3662109375,0.244140625,0.42724609375,0.4664448988311411,-0.4906155583361308,-0.7223120822779016,6.625,35.0,17.3125
289.5,0.30517578125,-0.1220703125,0.30517578125,0.4751121555223243,-0.4813379314554277,-0.7191381572923978,7.625,33.5625,14.75
290.0,0.1220703125,-0.1220703125,-0.06103515625,0.4721823786126286,-0.4847560045167394,-0.7206030457472457,8.0,33.9375,14.25
290.5,0.6103515625,-0.06103515625,0.79345703125,0.4718161564989166,-0.4874416333506272,-0.7199926755577257,-7.5,30.6875,11.125
291.0,-0.3662109375,-0.42724609375,-0.30517578125,0.4724265266884365,-0.4824365977965636,-0.7193823053682058,5.625,31.375,14.75
291.5,14.58740234375,-3.84521484375,-5.37109375,0.4714499343852046,-0.3875850703451643,-0.7351298562578203,20.75,32.0625,-0.3125
292.0,-60.85205078125,37.78076171875,33.75244140625,0.8998077333903012,-0.32593768120365,-0.7425763725699637,-0.6875,34.3125,12.9375
292.5,73.91357421875,-64.14794921875,92.34619140625,0.1682180242316965,-0.5578783532212287,-0.7518539994506668,-11.875,28.125,16.0
293.0,-24.7802734375,14.09912109375,-39.00146484375,-0.0135502182073427,-0.5576342051454207,-0.5172276985992004,-12.5625,24.875,16.875
293.5,-6.28662109375,44.0673828125,-33.99658203125,0.7760246589556566,-0.2158268990142521,-0.5439619129001739,9.3125,34.3125,15.1875
294.0,7.87353515625,19.10400390625,-41.93115234375,0.9161656544694358,-0.0640888698995941,-0.4643696401867733,8.0,33.1875,16.875
294.5,-7.2021484375,-71.6552734375,38.75732421875,0.8777123325296793,-0.1069368572038941,-0.6559038056581317,9.0,32.8125,14.25
295.0,10.498046875,29.96826171875,20.6298828125,0.3431501205481124,-0.3304544206060976,-0.6983855708487198,9.0,34.3125,16.875
295.5,-0.732421875,-2.13623046875,-1.3427734375,0.4398327585680715,-0.5086825159459212,-0.727561265907773,6.625,31.75,16.4375
296.0,-0.30517578125,-0.06103515625,-3.662109375,0.4498428296761986,-0.467299417096469,-0.7341532639545885,6.625,32.4375,16.0
296.5,0.244140625,-0.18310546875,-0.42724609375,0.4662007507553331,-0.4536271248512222,-0.7339091158787805,7.625,32.8125,16.0
297.0,-0.3662109375,-0.3662109375,0.0,0.45631275368511,-0.4585100863673818,-0.7420880764183477,6.9375,32.4375,17.3125
297.5,0.30517578125,0.1220703125,0.18310546875,0.456801049836726,-0.4664448988311411,-0.7428205206457716,9.0,33.1875,18.25
298.0,-0.1220703125,-0.1220703125,0.1220703125,0.4615619373149815,-0.4578997161778618,-0.7431867427594836,7.3125,33.1875,16.875
298.5,-0.06103515625,0.06103515625,-0.3662109375,0.4533829767754143,-0.4649800103762932,-0.7434308908352916,8.0,33.9375,18.625
299.0,2.8076171875,0.06103515625,-0.244140625,0.4627826776940214,-0.4511856440931425,-0.729148228400525,6.0,32.4375,16.4375
299.5,-2.5634765625,-0.18310546875,0.732421875,0.456678975798822,-0.4614398632770775,-0.7304910428174688,5.625,32.8125,13.8125
300.0,-0.244140625,-0.48828125,0.48828125,0.4517960142826624,-0.4663228247932371,-0.7470931119724112,4.9375,32.4375,12.0625
300.5,-0.54931640625,-0.732421875,-8.1787109375,0.445326090273751,-0.4578997161778618,-0.7315897091586047,4.25,33.5625,8.9375
301.0,9.94873046875,2.685546875,-2.9296875,0.4859767448957793,-0.4487441633350627,-0.728659932248909,6.0,35.3125,15.625
301.5,-1.5869140625,-1.0986328125,-5.2490234375,0.4828028199102755,-0.467055269020661,-0.7238990447706534,2.875,32.4375,13.8125
302.0,7.38525390625,3.41796875,-1.52587890625,0.5075838496047853,-0.4830469679860835,-0.695455793939024,4.625,33.1875,12.0625
302.5,-1.5869140625,0.3662109375,1.89208984375,0.5028229621265298,-0.4643696401867733,-0.69594409009064,4.25,35.0,13.8125
303.0,7.080078125,0.8544921875,-4.2724609375,0.4843897824030274,-0.4422742393261513,-0.6714072084719382,5.3125,34.3125,15.1875
303.5,-0.06103515625,1.40380859375,2.685546875,0.5273598437452315,-0.4658345286416211,-0.6883754997405926,4.625,34.6875,11.625
304.0,-3.41796875,-2.8076171875,1.0986328125,0.5105136265144811,-0.4715720084231086,-0.6898403881954406,3.5625,35.6875,9.375
304.5,7.32421875,2.86865234375,0.1220703125,0.4868312631611072,-0.4416638691366313,-0.6985076448866238,6.0,32.0625,12.9375
305.0,0.244140625,-2.74658203125,-1.3427734375,0.5079500717184973,-0.4759666737876522,-0.7074190496536149,6.9375,36.4375,12.0625
305.5,3.47900390625,0.67138671875,1.3427734375,0.4749900814844203,-0.5041657765434736,-0.7077852717673269,4.25,33.9375,11.125
306.0,0.1220703125,-0.06103515625,0.732421875,0.4952543717764824,-0.489028595843379,-0.7005829035309915,3.5625,32.4375,13.8125
306.5,0.42724609375,1.40380859375,0.91552734375,0.4935453352458266,-0.5095370342112491,-0.6987517929624317,6.625,35.3125,12.5
307.0,-2.74658203125,-2.62451171875,-4.0283203125,0.4826807458723716,-0.4909817804498428,-0.7225562303537095,5.3125,34.3125,15.625
307.5,0.48828125,2.13623046875,4.21142578125,0.5179601428266244,-0.4436170537430952,-0.7049775688955351,4.9375,34.3125,12.5
308.0,-1.0986328125,-1.953125,-1.52587890625,0.4865871150852992,-0.5062410351878415,-0.7228003784295175,5.625,35.3125,14.25
308.5,-0.06103515625,-0.30517578125,0.732421875,0.4925687429425947,-0.4852443006683553,-0.7140110477004303,5.3125,33.1875,14.75
309.0,0.54931640625,0.1220703125,0.30517578125,0.4882961516159551,-0.4815820795312357,-0.7148655659657582,5.625,35.3125,13.4375
309.5,1.28173828125,-0.18310546875,0.3662109375,0.467055269020661,-0.4903714102603229,-0.7243873409222693,6.0,33.1875,15.1875
310.0,-3.90625,-0.48828125,0.79345703125,0.4846339304788354,-0.5052644428846095,-0.7083956419568468,4.9375,36.0625,12.0625
310.5,1.40380859375,-0.42724609375,-0.54931640625,0.4818262276070437,-0.4834131900997955,-0.7235328226569414,4.9375,34.3125,12.9375
311.0,3.23486328125,-0.67138671875,-1.15966796875,0.5040437025055696,-0.4748680074465163,-0.6991180150761437,4.9375,35.0,14.25
311.5,-0.9765625,0.91552734375,0.6103515625,0.489028595843379,-0.456556901760918,-0.7105929746391186,6.0,34.6875,13.4375
312.0,-0.732421875,-0.54931640625,-0.30517578125,0.4873195593127232,-0.4725486007263405,-0.7190160832544938,20.75,33.1875,4.9375
312.5,0.1220703125,-1.03759765625,-0.3662109375,0.4817041535691397,-0.488540299691763,-0.7206030457472457,-2.0625,37.5625,3.5625
313.0,3.84521484375,1.8310546875,6.7138671875,0.4920804467909787,-0.4643696401867733,-0.684591204565569,-2.75,33.5625,13.4375
313.5,16.357421875,-58.65478515625,35.82763671875,-0.1910458693197424,-0.2401196325571459,-0.488662373729667,22.125,30.6875,1.375
314.0,-50.59814453125,140.869140625,-98.93798828125,0.8878444776757103,-0.5957213049714651,-0.8032471694082461,-9.875,28.125,20.0
314.5,75.927734375,-98.44970703125,157.77587890625,0.8326670125431074,-0.6498001037629322,-0.7353740043336283,-23.375,11.5625,18.25
315.0,-19.04296875,-4.8828125,-24.7802734375,-0.0300302133243812,-0.67299417096469,-0.4959868160039064,-22.3125,5.375,16.0
315.5,-39.55078125,-0.06103515625,-153.13720703125,0.8104495376445814,0.0261238441114535,-0.7003387554551835,-18.0,21.25,16.0
316.0,-34.85107421875,4.82177734375,15.80810546875,0.6230658894619587,0.30359813226722,-0.6143986327707754,0.5625,37.875,4.5
316.5,7.9345703125,9.58251953125,-1.64794921875,0.608661152989288,0.4511856440931425,-0.5572679830317088,21.125,30.6875,1.8125
317.0,18.49365234375,-39.48974609375,65.49072265625,0.5377361369670706,0.0013428144169438,-0.6609088412121952,5.625,33.5625,8.9375
317.5,10.7421875,-0.244140625,140.44189453125,0.3778191473128452,-0.7240211188085574,-0.7633289590136417,-11.1875,31.0625,13.4375
318.0,-9.6435546875,4.57763671875,7.32421875,-0.1593066194647053,-0.7486800744651632,-0.5648365733817561,5.3125,28.875,21.75
318.5,-42.3583984375,117.98095703125,-182.06787109375,0.7442854091006196,-0.673482467116306,-0.6699423200170904,-2.4375,35.0,14.25
319.0,-26.18408203125,-26.18408203125,17.4560546875,0.86855677968688,-0.1473433637501144,-0.6451612903225806,1.25,37.1875,3.5625
319.5,6.591796875,-45.83740234375,-31.8603515625,0.1878719443342387,-0.0814233832819605,-0.8531754509109775,-0.4375,36.8125,2.75
320.0,120.9716796875,77.69775390625,32.5927734375,0.3938108462782678,-0.6417432172612689,-0.8921170690023499,15.0625,33.9375,7.1875
320.5,-25.87890625,-16.29638671875,4.7607421875,0.4817041535691397,-0.5423749504074221,-0.4879299295022431,13.375,35.6875,3.5625
321.0,-20.263671875,-7.8125,63.4765625,0.5240638447218238,-0.7964110232856227,-0.5794854579302346,19.125,32.8125,6.6875
321.5,5.31005859375,-11.29150390625,-15.625,0.2119205298013245,-0.5726493118076114,-0.6552934354686117,-6.5,33.5625,9.375
322.0,1.5869140625,-18.61572265625,14.46533203125,0.1771294289986877,-0.7046113467818231,-0.6483352153080844,3.5625,36.0625,13.8125
322.5,-12.63427734375,33.99658203125,-54.13818359375,0.0636005737479781,-0.6283150730918302,-0.6143986327707754,17.0625,32.4375,2.25
323.0,-10.498046875,8.85009765625,-15.869140625,0.826441236610004,-0.4793847468489638,-0.5714285714285714,18.75,32.8125,4.9375
323.5,23.98681640625,-38.0859375,41.8701171875,0.5626392406994842,-0.5305337687307352,-0.6482131412701804,-4.4375,33.9375,9.375
324.0,-6.65283203125,-30.57861328125,31.494140625,0.0787377544480727,-0.6340525528733176,-0.5573900570696128,-6.8125,33.1875,8.0625
324.5,-12.26806640625,8.056640625,-22.705078125,-0.0139164403210547,-0.6226996673482467,-0.5840021973326823,8.3125,35.0,12.9375
325.0,-19.8974609375,42.3583984375,-62.07275390625,0.870021668141728,-0.5532395397808771,-0.6106143375957518,13.6875,36.8125,5.8125
325.5,-8.72802734375,-20.3857421875,16.05224609375,0.8316904202398755,-0.3858760338145085,-0.489028595843379,-5.8125,32.4375,10.3125
326.0,14.22119140625,-32.958984375,42.41943359375,0.5302896206549272,-0.6231879634998627,-0.6032898953215124,-12.875,31.75,12.0625
326.5,-9.21630859375,8.1787109375,-30.45654296875,0.1925107577745902,-0.597552415540025,-0.6130558183538316,5.3125,29.1875,19.125
327.0,-11.8408203125,60.48583984375,-51.20849609375,0.8236335337382122,-0.4727927488021485,-0.6617633594775231,13.6875,31.75,16.4375
327.5,-2.13623046875,-2.197265625,-0.8544921875,0.8641621143223365,-0.228156376842555,-0.4391003143406476,-0.0625,32.8125,11.125
328.0,-3.47900390625,-73.54736328125,51.3916015625,0.4580217902157658,-0.2518387401959288,-0.7605212561418501,-8.8125,31.75,11.125
328.5,16.90673828125,-7.26318359375,-1.5869140625,-0.0283211767937253,-0.2688070314645833,-0.7313455610827967,-7.8125,32.8125,11.125
329.0,-11.23046875,53.77197265625,-44.86083984375,0.6971648304696798,-0.5277260658589434,-0.8094729453413495,-7.8125,33.9375,13.4375
329.5,-8.85009765625,17.578125,-12.939453125,0.8128910184026612,-0.2409741508224738,-0.4516739402447584,-6.8125,30.3125,12.0625
330.0,2.5634765625,1.28173828125,-5.7373046875,0.8388927884762108,-0.2651448103274636,-0.4903714102603229,6.625,35.6875,18.25
330.5,0.3662109375,3.35693359375,-2.197265625,0.8445081942197943,-0.2758873256630146,-0.49977111117893,9.0,33.9375,12.9375
331.0,2.13623046875,0.48828125,-0.732421875,0.8066652424695577,-0.3021332438123722,-0.5411542100283823,4.625,33.5625,12.0625
331.5,6.7138671875,-63.720703125,39.73388671875,0.5014801477095858,-0.3541367839594714,-0.6869106112857448,-4.4375,32.0625,12.5
332.0,7.2021484375,6.2255859375,-0.18310546875,0.2657551805169835,-0.4852443006683553,-0.7187719351786859,-3.8125,32.4375,15.625
332.5,-3.96728515625,47.7294921875,-39.61181640625,0.423841059602649,-0.4222540971098971,-0.6274605548265023,-2.75,33.9375,13.8125
333.0,2.86865234375,-7.32421875,8.9111328125,0.7959227271340068,-0.4703512680440687,-0.6103701895199438,1.9375,34.3125,11.125
333.5,-1.89208984375,-4.69970703125,3.11279296875,0.7452620014038515,-0.4244514297921689,-0.5119785149693289,0.5625,36.0625,12.0625
334.0,14.09912109375,-5.2490234375,-16.05224609375,0.7473372600482192,-0.3397320474868007,-0.5307779168065432,1.25,32.8125,16.4375
334.5,2.0751953125,2.0751953125,-3.173828125,0.6394238105410932,-0.4720603045747246,-0.5273598437452315,-2.0625,33.5625,13.4375
335.0,1.0986328125,-0.42724609375,-1.52587890625,0.6665242469557787,-0.4732810449537644,-0.5573900570696128,15.0625,31.375,18.25
335.5,-3.47900390625,4.0283203125,-13.61083984375,0.6772667622913296,-0.4288460951567125,-0.5908383434553056,18.4375,30.6875,5.8125
336.0,12.39013671875,-20.6298828125,0.1220703125,0.7158421582689901,-0.3839228492080447,-0.718161564989166,26.5625,27.75,1.375
336.5,16.9677734375,-32.65380859375,16.845703125,0.0468764305551316,-0.347544785912656,-0.7982421338541825,6.9375,35.6875,10.75
337.0,94.7265625,76.0498046875,24.4140625,0.0820337534714804,-0.8247322000793481,-0.8652607806634725,-11.875,31.0625,10.75
337.5,4.82177734375,-12.0849609375,20.5078125,-0.1709036530655842,-0.6776329844050416,-0.5215002899258401,-5.125,32.4375,11.625
338.0,-17.88330078125,43.8232421875,-128.72314453125,0.488540299691763,-0.7507553331095309,-0.6161076693014313,13.6875,35.3125,7.625
338.5,-32.8369140625,10.31494140625,-36.1328125,0.8844264046143986,-0.250129703665273,-0.391247291482284,5.3125,37.5625,8.9375
339.0,1.3427734375,-24.7802734375,31.55517578125,0.7649159215063936,-0.2613605151524399,-0.5260170293282876,2.875,36.0625,13.4375
339.5,38.0859375,-19.71435546875,50.29296875,0.3117770928067873,-0.4738914151432844,-0.5498214667195654,0.5625,37.1875,9.375
340.0,-2.86865234375,32.2265625,-37.109375,0.3820917386394848,-0.5947447126682333,-0.6516312143314921,-3.125,33.5625,10.3125
340.5,-8.7890625,0.67138671875,8.056640625,0.5280922879726554,-0.5501876888332774,-0.6161076693014313,-2.75,35.6875,11.125
341.0,-3.173828125,3.0517578125,-5.43212890625,0.6391796624652852,-0.5072176274910734,-0.6362498855555895,-1.375,32.0625,10.3125
341.5,2.50244140625,6.34765625,-11.16943359375,0.6991180150761437,-0.4102908413953062,-0.58668782616657,4.625,35.3125,15.625
342.0,1.3427734375,-0.42724609375,-0.18310546875,0.7295144505142369,-0.3857539597766045,-0.5709402752769555,10.3125,35.3125,8.9375
342.5,0.6103515625,0.3662109375,3.47900390625,0.695455793939024,-0.3830683309427167,-0.5896176030762658,9.6875,34.3125,13.8125
343.0,-4.69970703125,-24.7802734375,13.24462890625,0.6395458845789972,-0.5417645802179022,-0.6972869045075838,11.0,32.8125,9.8125
343.5,-6.16455078125,-19.22607421875,14.892578125,0.3018890957365642,-0.522232734153264,-0.7157200842310861,9.3125,33.9375,10.75
344.0,8.85009765625,1.220703125,-6.2255859375,0.3086031678212836,-0.5915707876827295,-0.7419660023804437,11.3125,34.6875,11.125
344.5,-3.0517578125,-4.82177734375,3.2958984375,0.2674642170476394,-0.5619067964720603,-0.69594409009064,9.3125,34.3125,12.5
345.0,-2.685546875,2.38037109375,-0.91552734375,0.2813806573686941,-0.565813165684988,-0.7346415601062044,10.0,34.6875,13.4375
345.5,-1.64794921875,-0.06103515625,-0.732421875,0.3082369457075716,-0.576189458906827,-0.7439191869869075,9.6875,32.8125,13.8125
346.0,-0.3662109375,0.54931640625,-0.67138671875,0.3206884975737785,-0.5716727195043794,-0.7398907437360759,8.3125,35.0,12.9375
346.5,0.54931640625,0.9765625,0.1220703125,0.3266701254310739,-0.575212866603595,-0.7459944456312754,8.6875,33.9375,14.25
347.0,0.06103515625,0.0,-1.15966796875,0.3403424176763207,-0.5528733176671652,-0.7430646687215796,9.3125,33.1875,11.625
347.5,-0.244140625,-0.1220703125,1.15966796875,0.3427838984344005,-0.5678884243293557,-0.7304910428174688,8.6875,36.4375,13.8125
348.0,0.244140625,0.79345703125,-0.244140625,0.3447370830408642,-0.5569017609179968,-0.7409894100772119,6.9375,33.5625,11.125
348.5,-2.197265625,-1.3427734375,-0.6103515625,0.3462019714957121,-0.5494552446058535,-0.727561265907773,6.3125,33.9375,14.75
349.0,-1.5869140625,2.13623046875,-3.60107421875,0.3664662617877743,-0.5304116946928312,-0.750144962920011,8.6875,32.8125,14.75
349.5,-11.41357421875,5.43212890625,-5.06591796875,0.3949095126194036,-0.4945219275490585,-0.7445295571764275,15.0625,34.6875,8.0625
350.0,1.8310546875,10.31494140625,-3.5400390625,0.4587542344431898,-0.4463026825769829,-0.7516098513748588,18.4375,31.375,11.625
350.5,2.197265625,-5.2490234375,7.38525390625,0.4874416333506272,-0.4553361613818781,-0.7359843745231482,7.3125,36.0625,8.0625
351.0,13.916015625,-7.8125,-3.173828125,0.1138950773644215,-0.6270943327127904,-0.7409894100772119,-6.8125,36.0625,12.0625
351.5,-11.77978515625,-8.30078125,6.7138671875,-0.0281991027558214,-0.5702078310495315,-0.7777336954863124,-5.4375,34.6875,10.3125
352.0,23.0712890625,91.00341796875,-62.744140625,0.1232947782830286,-0.325815607165746,-0.412366100039674,5.625,33.5625,15.625
352.5,-2.62451171875,34.11865234375,-25.32958984375,0.8601336710715048,-0.5577562791833247,-0.5728934598834193,15.375,32.0625,18.625
353.0,-5.37109375,-1.64794921875,0.79345703125,0.7771233252967925,-0.4530167546617023,-0.4377574999237037,14.0,31.0625,16.4375
353.5,-46.630859375,-60.24169921875,23.0712890625,0.6036561174352245,-0.4370250556962798,-0.6532181768242439,14.6875,32.0625,16.0
354.0,8.85009765625,-24.0478515625,11.65771484375,0.1467329935605945,-0.3420514542069765,-0.8054445020905179,14.0,32.8125,13.4375
354.5,-0.1220703125,2.3193359375,-2.38037109375,0.1138950773644215,-0.4506973479415265,-0.8883327738273262,5.625,31.75,17.3125
355.0,-0.244140625,1.708984375,-0.79345703125,0.1213415936765648,-0.4577776421399578,-0.8534195989867854,6.3125,31.75,18.625
355.5,-1.3427734375,-1.40380859375,0.8544921875,0.1274452955717642,-0.4437391277809991,-0.8495132297738578,-12.1875,30.3125,14.75
356.0,-10.55908203125,48.095703125,-34.3017578125,0.3763542588579974,-0.4531388286996063,-0.95669423505356,-2.75,32.8125,17.3125
356.5,2.8076171875,7.87353515625,2.25830078125,0.4524063844721824,-0.3529160435804315,-0.8125247962889492,10.0,31.75,18.25
357.0,35.09521484375,26.42822265625,-100.52490234375,0.6080507827997681,-0.228400524918363,-0.4543595690786462,-8.125,29.9375,16.0
357.5,-23.49853515625,-95.27587890625,64.63623046875,0.8401135288552507,-0.3054292428357799,-0.7053437910092472,-11.5,31.0625,11.125
358.0,10.19287109375,-4.45556640625,10.6201171875,0.054322946867275,-0.2923673207800531,-0.7356181524094363,-12.5625,29.9375,10.75
358.5,19.22607421875,109.7412109375,-31.55517578125,0.6601763969847713,-0.1261024811548204,-0.6966765343180639,-12.1875,29.1875,5.375
359.0,18.6767578125,-4.45556640625,-10.009765625,0.8756370738853114,-0.2011780144657735,-0.5077059236426893,-15.25,29.1875,9.375
359.5,6.103515625,12.20703125,-6.103515625,0.8749046296578875,-0.1748100222785119,-0.4705954161198767,-13.25,28.5,6.6875
360.0,2.25830078125,-1.8310546875,-1.8310546875,0.8783227027191992,-0.1456343272194586,-0.4510635700552385,-15.9375,27.0625,6.6875
360.5,2.62451171875,4.08935546875,-0.30517578125,0.8772240363780633,-0.1579638050477614,-0.4807275612659077,-12.875,28.5,8.4375
361.0,0.30517578125,2.0751953125,-0.48828125,0.8711203344828639,-0.1276894436475722,-0.4483779412213508,-14.25,28.875,8.4375
361.5,-0.67138671875,0.18310546875,0.6103515625,0.8794213690603351,-0.1272011474959563,-0.4572893459883419,-13.5625,28.875,5.8125
362.0,-0.48828125,0.6103515625,0.48828125,0.8778344065675833,-0.1259804071169164,-0.445692312387463,-13.9375,30.6875,8.0625
362.5,0.91552734375,0.244140625,0.0,0.8794213690603351,-0.130619220557268,-0.4461806085390789,-13.25,28.5,7.1875
363.0,0.30517578125,-0.6103515625,-0.3662109375,0.8845484786523026,-0.1356242561113315,-0.4472792748802148,-13.5625,28.125,8.4375
363.5,-0.91552734375,-1.3427734375,0.0,0.8746604815820795,-0.1438032166508987,-0.4483779412213508,-13.5625,30.3125,8.0625
364.0,-0.54931640625,0.54931640625,-0.6103515625,0.8845484786523026,-0.1417279580065309,-0.4511856440931425,-14.25,29.9375,7.1875
364.5,0.54931640625,0.79345703125,-0.244140625,0.8769798883022553,-0.1320841090121158,-0.4437391277809991,-14.875,28.125,6.25
365.0,-0.79345703125,-1.3427734375,0.67138671875,0.8785668507950072,-0.1431928464613788,-0.4447157200842311,-12.1875,28.125,10.3125
365.5,0.732421875,-0.48828125,-0.18310546875,0.8847926267281105,-0.1396526993621631,-0.4469130527665029,6.0,31.0625,23.125
366.0,0.79345703125,0.06103515625,0.42724609375,0.8784447767571032,-0.1350138859218115,-0.445448164311655,3.5625,33.9375,14.25
366.5,-0.79345703125,-4.08935546875,2.3193359375,0.879665517136143,-0.1475875118259224,-0.4649800103762932,-10.1875,29.9375,12.0625
367.0,-22.27783203125,-125.91552734375,29.052734375,0.6689657277138584,-0.162968840601825,-0.8161870174260689,3.25,30.6875,21.3125
367.5,8.85009765625,22.3388671875,-11.474609375,-0.0859401226844081,-0.1241492965483565,-0.7862788781395916,11.3125,30.6875,27.125
368.0,13.3056640625,64.3310546875,-26.55029296875,0.7643055513168737,-0.261116367076632,-0.7754142887661366,-4.75,31.4375,12.9375
368.5,-35.82763671875,-120.361328125,50.537109375,0.8005615405743584,-0.4184698019348735,-0.8595233008819849,-10.875,31.75,16.4375
369.0,-17.08984375,-31.73828125,17.9443359375,0.1209753715628528,-0.1596728415784173,-1.001129184850612,-10.875,28.5,11.125
369.5,51.08642578125,85.26611328125,-36.62109375,0.4587542344431898,-0.2114322336497085,-0.8421887874996186,-10.5625,30.3125,13.4375
370.0,2.9296875,5.126953125,-8.11767578125,0.7296365245521409,-0.2558671834467604,-0.6307565538499099,-9.1875,32.4375,8.9375
370.5,-1.708984375,-10.80322265625,-2.38037109375,0.7651600695822016,-0.2330393383587145,-0.5731376079592273,-10.1875,32.0625,12.5
371.0,0.67138671875,3.0517578125,0.06103515625,0.7900631733146153,-0.2315744499038667,-0.565324869533372,-9.5,31.375,14.25
371.5,-1.3427734375,0.0,1.40380859375,0.782616657002472,-0.2258369701223792,-0.5498214667195654,-10.1875,34.3125,12.0625
372.0,-0.6103515625,-0.42724609375,-0.06103515625,0.7861568041016876,-0.2406079287087618,-0.5570238349559008,-9.1875,33.5625,10.75
372.5,1.89208984375,0.30517578125,-1.46484375,0.7834711752678,-0.250129703665273,-0.565691091647084,-8.8125,33.5625,12.0625
373.0,-0.18310546875,1.64794921875,-0.3662109375,0.7981200598162785,-0.2393871883297219,-0.5517746513260292,-10.5625,32.0625,11.125
373.5,2.38037109375,1.5869140625,-0.9765625,0.7992187261574145,-0.2225409710989715,-0.5572679830317088,-12.5625,30.6875,13.4375
374.0,-1.220703125,0.91552734375,-0.1220703125,0.8017822809533982,-0.2271797845393231,-0.5428632465590381,3.9375,28.5,26.6875
374.5,-1.708984375,-0.79345703125,0.42724609375,0.792992950224311,-0.2410962248603778,-0.5394451734977264,-3.125,28.875,20.4375
375.0,-1.28173828125,-3.35693359375,-0.3662109375,0.7779778435621204,-0.2349925229651784,-0.5399334696493423,15.0625,34.6875,4.0
375.5,-10.92529296875,-125.0,13.3056640625,0.6937467574083682,-0.2042298654133732,-0.8379161961729789,20.5,32.8125,-3.0
376.0,1.0986328125,35.58349609375,-5.67626953125,0.0155034028138065,0.0075685903500473,-0.7254860072634053,-10.1875,29.5625,11.625
376.5,62.98828125,4.57763671875,111.6943359375,0.6500442518387402,-0.5737479781487472,-0.8652607806634725,-14.625,28.5,9.375
377.0,11.53564453125,-17.08984375,28.86962890625,-0.010620441297647,-0.782494582964568,-0.5684987945188757,-13.9375,27.4375,4.5
377.5,-51.81884765625,70.12939453125,-143.06640625,0.4145634327219458,-0.5461592455824458,-0.5912045655690176,-15.25,28.875,10.3125
378.0,-8.11767578125,-14.2822265625,-20.8740234375,0.8290047914059877,-0.1108432264168218,-0.4878078554643391,-13.9375,29.1875,2.75
378.5,4.39453125,4.21142578125,-4.150390625,0.8679464094973601,-0.1324503311258278,-0.4458143864253669,-14.625,29.1875,7.625
379.0,-0.48828125,1.3427734375,-0.91552734375,0.8806421094393749,-0.1309854426709799,-0.4646137882625812,-14.875,29.5625,8.0625
379.5,1.03759765625,1.77001953125,0.42724609375,0.8865016632587664,-0.1197546311838129,-0.4474013489181188,-15.9375,28.875,5.8125
380.0,-0.42724609375,-0.6103515625,-0.54931640625,0.8904080324716941,-0.129886776329844,-0.4322641682180242,-16.625,28.875,4.5
380.5,0.54931640625,0.0,0.06103515625,0.8927274391918699,-0.1284218878749962,-0.4311655018768883,-1.375,28.125,23.625
381.0,0.06103515625,0.1220703125,-0.18310546875,0.8941923276467177,-0.1250038148136845,-0.4275032807397687,4.9375,31.75,22.25
381.5,1.28173828125,-0.9765625,0.06103515625,0.8928495132297739,-0.130252998443556,-0.4282357249671926,-11.1875,30.6875,9.375
382.0,-7.87353515625,-31.92138671875,15.2587890625,0.9287392803735466,-0.1870174260689108,-0.6152531510361035,-10.5625,32.0625,8.4375
382.5,1.953125,-72.1435546875,14.0380859375,0.0911893063142796,-0.1419721060823389,-0.9048127689443648,-10.875,29.9375,5.8125
383.0,43.45703125,119.873046875,-44.189453125,0.630878627887814,-0.2351145970030823,-0.7152317880794702,-12.5625,30.3125,8.9375
383.5,-0.732421875,-0.3662109375,2.25830078125,0.8133793145542771,-0.2220526749473555,-0.5027008880886258,-11.875,31.0625,8.9375
384.0,0.9765625,0.30517578125,-2.25830078125,0.8331553086947233,-0.2507400738547929,-0.521378215887936,-9.875,31.0625,11.625
384.5,-1.89208984375,-2.01416015625,0.42724609375,0.8305917538987396,-0.227546006653035,-0.4929349650563066,-7.5,34.6875,13.4375
385.0,0.6103515625,-0.6103515625,0.18310546875,0.8357188634907071,-0.2224188970610675,-0.4981841486861781,19.4375,33.1875,5.375
385.5,0.8544921875,0.42724609375,0.30517578125,0.8338877529221472,-0.2225409710989715,-0.4940336313974425,23.1875,30.6875,1.8125
386.0,-2.197265625,-8.9111328125,2.44140625,0.8219244972075563,-0.2286446729941709,-0.5056306649983214,2.25,34.6875,8.9375
386.5,32.16552734375,-77.69775390625,91.796875,0.4332407605212561,-0.4516739402447584,-0.6782433545945616,-12.5625,31.375,4.5
387.0,8.72802734375,-16.2353515625,24.0478515625,-0.1656544694357127,-0.7343974120303964,-0.630024109622486,-10.875,32.0625,7.625
387.5,-12.75634765625,29.052734375,-40.34423828125,-0.140995513779107,-0.5733817560350353,-0.5614185003204444,-13.9375,28.125,6.25
388.0,7.4462890625,30.517578125,-67.32177734375,0.8281502731406598,-0.4616840113528855,-0.6275826288644063,-12.5625,30.6875,10.3125
388.5,-2.99072265625,-3.2958984375,2.74658203125,0.8744163335062716,-0.1744438001647999,-0.4798730430005798,-14.625,31.75,6.25
389.0,8.23974609375,10.8642578125,-11.16943359375,0.8623310037537767,-0.2187566759239478,-0.4975737784966582,-13.25,31.0625,4.0
389.5,-0.54931640625,0.67138671875,-1.8310546875,0.86855677968688,-0.2103335673085726,-0.4491103854487747,-11.875,29.1875,9.8125
390.0,-0.06103515625,0.06103515625,-0.67138671875,0.8677022614215522,-0.2082583086642048,-0.4419080172124393,3.5625,26.3125,27.125
390.5,0.0,1.52587890625,0.06103515625,0.8725852229377117,-0.1964171269875179,-0.4383678701132236,-3.125,31.75,15.1875
391.0,-0.3662109375,-1.52587890625,1.03759765625,0.8675801873836482,-0.2089907528916287,-0.4448377941221351,-6.5,31.75,12.0625
391.5,-41.6259765625,-106.8115234375,20.44677734375,0.6728720969267861,-0.1809137241737113,-0.8014160588396863,-11.1875,31.0625,10.3125
392.0,14.404296875,48.2177734375,1.89208984375,-0.1143833735160374,-0.0845973082674642,-0.6168401135288553,-8.125,32.8125,12.9375
392.5,-0.8544921875,26.85546875,-9.58251953125,0.7036347544785913,-0.1855525376140629,-0.7495345927304911,-10.5625,32.4375,7.1875
393.0,4.82177734375,11.23046875,-5.43212890625,0.7660145878475295,-0.314951017792291,-0.6421094393749809,-10.1875,33.5625,8.9375
393.5,-4.5166015625,-4.57763671875,2.25830078125,0.7914059877315592,-0.2638019959105197,-0.5747245704519791,-8.5,31.0625,12.0625
394.0,0.732421875,0.91552734375,0.0,0.7846919156468398,-0.2541581469161046,-0.5500656147953734,-9.875,30.6875,9.8125
394.5,-0.8544921875,0.244140625,-0.6103515625,0.7928708761864071,-0.271248512222663,-0.5407879879146702,-9.5,32.0625,9.8125
395.0,0.3662109375,1.0986328125,-1.0986328125,0.7998290963469344,-0.2534257026886807,-0.5317545091097751,-9.875,33.1875,8.0625
395.5,1.8310546875,1.03759765625,-0.91552734375,0.7920163579210792,-0.2634357737968077,-0.5518967253639332,11.3125,36.0625,6.6875
396.0,0.732421875,1.15966796875,-0.244140625,0.7904293954283272,-0.2601397747734,-0.5378582110049746,20.125,30.6875,-1.25
396.5,-0.67138671875,-0.48828125,0.42724609375,0.7958006530961028,-0.2540360728782006,-0.5330973235267189,5.3125,36.0625,4.5
397.0,-6.34765625,-55.96923828125,65.49072265625,0.7080294198431348,-0.4701071199682607,-0.6318552201910459,-13.25,29.9375,5.8125
397.5,-3.11279296875,-33.26416015625,57.31201171875,0.0584734641560106,-0.63136692403943,-0.6447950682088687,-14.625,28.125,5.8125
398.0,-6.65283203125,4.57763671875,-9.1552734375,-0.1925107577745902,-0.684102908413953,-0.5191808832056642,-12.875,30.3125,6.6875
398.5,-33.69140625,49.01123046875,-111.26708984375,0.6618854335154271,-0.6175725577562792,-0.7046113467818231,-13.5625,31.0625,5.375
399.0,1.64794921875,-1.89208984375,-3.7841796875,0.8529313028351695,-0.1859187597277748,-0.41285439619129,-13.25,29.9375,3.125
399.5,0.18310546875,1.5869140625,0.3662109375,0.8651387066255684,-0.1746879482406079,-0.4166386913663136,-13.5625,29.5625,4.5
400.0,-1.220703125,0.8544921875,-0.91552734375,0.8777123325296793,-0.1853083895382549,-0.4306772057252723,-13.9375,29.9375,4.9375
400.5,0.6103515625,0.18310546875,-0.18310546875,0.8784447767571032,-0.1861629078035828,-0.4299447614978484,-8.8125,32.0625,16.0
401.0,0.30517578125,-0.48828125,-0.67138671875,0.8817407757805109,-0.1895809808648945,-0.4311655018768883,6.9375,31.0625,20.9375
401.5,0.1220703125,-0.42724609375,0.06103515625,0.8823511459700308,-0.1793267616809595,-0.4272591326639607,6.3125,31.375,24.0
402.0,0.48828125,-1.8310546875,1.52587890625,0.8923612170781579,-0.1900692770165105,-0.4397106845301675,6.0,31.75,21.75
402.5,-18.85986328125,-108.94775390625,31.73828125,0.5777764213995789,-0.1859187597277748,-0.8078859828485977,7.3125,33.9375,16.4375
403.0,-11.41357421875,-21.30126953125,-4.7607421875,-0.0274666585283974,-0.0694601275673696,-0.8172856837672048,11.3125,35.0,-5.6875
403.5,21.728515625,22.27783203125,12.87841796875,0.1904354991302224,-0.1595507675405133,-0.9292275765251624,14.0,35.3125,-6.125
404.0,11.90185546875,19.34814453125,12.0849609375,0.3459578234199041,-0.336191900387585,-0.9095736564226204,16.75,34.3125,-11.0625
404.5,133.23974609375,-80.50537109375,-6.89697265625,0.2589190343943602,-0.6208685567796869,-0.8109378337961974,31.5625,22.375,-3.9375
405.0,13.00048828125,-20.08056640625,22.15576171875,-0.1740775780510879,-0.8349864192632832,-0.5052644428846095,30.625,24.5,-0.8125
405.5,5.615234375,-9.21630859375,8.48388671875,-0.2298654133732108,-0.7700430310983611,-0.4605853450117496,8.0,35.0,9.8125
406.0,-52.3681640625,4.638671875,64.8193359375,-0.3447370830408642,-0.7492904446546831,-0.3663441877498703,-5.8125,33.1875,7.625
406.5,1.03759765625,6.7138671875,6.89697265625,-0.522598956266976,-0.5488448744163335,-0.6257515182958464,-7.1875,32.0625,6.6875
407.0,-14.404296875,13.24462890625,-45.71533203125,-0.4365367595446638,-0.5276039918210395,-0.5592211676381725,-13.5625,35.0,3.125
407.5,-15.380859375,69.64111328125,-98.9990234375,0.7005829035309915,-0.6219672231208228,-0.8420667134617146,-16.9375,27.4375,-1.25
408.0,-4.8828125,-5.37109375,3.11279296875,0.7975096896267586,-0.3499862666707358,-0.4936674092837306,-15.25,31.4375,2.75
408.5,21.1181640625,1.40380859375,-27.9541015625,0.7966551713614307,-0.2645344401379436,-0.3812372203741569,-16.625,28.875,-2.1875
409.0,15.31982421875,-9.33837890625,-16.7236328125,0.8462172307504502,-0.314462721640675,-0.4176152836695456,-18.0,27.4375,0.875
409.5,10.009765625,-9.09423828125,-4.94384765625,0.8232673116245003,-0.3614612262337107,-0.4376354258857997,-15.9375,29.5625,-1.6875
410.0,0.42724609375,3.0517578125,0.18310546875,0.8379161961729789,-0.2799157689138462,-0.4358043153172399,-16.25,28.125,-2.1875
410.5,1.953125,0.30517578125,-1.40380859375,0.8658711508529924,-0.2745445112460707,-0.4283577990050966,-16.625,27.0625,-2.1875
411.0,1.89208984375,-0.79345703125,0.0,0.8611102633747367,-0.2658772545548875,-0.4336069826349681,-17.625,25.625,-5.25
411.5,-0.67138671875,0.732421875,0.54931640625,0.8615985595263528,-0.2747886593218787,-0.4301889095736564,-15.5625,29.1875,4.5
412.0,-0.3662109375,-0.6103515625,0.67138671875,0.8658711508529924,-0.271492660298471,-0.4306772057252723,-10.875,34.6875,0.4375
412.5,0.18310546875,-0.18310546875,-0.54931640625,0.8581804864650411,-0.2723471785637989,-0.4242072817163609,-9.1875,34.6875,-2.5625
413.0,0.79345703125,0.06103515625,-0.06103515625,0.8583025605029451,-0.2750328073976867,-0.4205450605792413,-5.8125,33.1875,12.9375
413.5,80.4443359375,-45.22705078125,44.677734375,0.6219672231208228,-0.4351939451277199,-0.4655903805658131,10.3125,32.4375,23.125
414.0,0.8544921875,-8.97216796875,8.4228515625,0.4364146855067598,-0.6504104739524521,-0.5406659138767662,-5.8125,32.0625,19.125
414.5,-9.70458984375,4.57763671875,-16.54052734375,0.4148075807977538,-0.6816614276558732,-0.5728934598834193,-9.1875,31.375,11.625
415.0,-74.52392578125,-30.09033203125,21.66748046875,0.3903927732169561,-0.3399761955626087,-0.9272743919186986,-15.25,30.6875,3.5625
415.5,-23.0712890625,-44.49462890625,8.056640625,-0.1661427655873287,-0.0136722922452467,-0.945585497604297,-15.25,27.4375,1.8125
416.0,19.6533203125,116.51611328125,-43.45703125,0.6003601184118168,-0.4388561662648396,-1.0013733329264198,-15.5625,25.25,3.5625
416.5,11.23046875,39.0625,-29.9072265625,0.7027802362132634,-0.2067934202093569,-0.5158848841822565,-16.625,29.1875,2.75
417.0,3.96728515625,4.57763671875,-0.1220703125,0.8600115970336009,-0.2517166661580248,-0.478408154545732,-18.0,29.5625,0.4375
417.5,-18.49365234375,8.60595703125,23.37646484375,0.8174077578051088,-0.2032532731101413,-0.4760887478255562,-16.625,29.9375,2.25
418.0,5.615234375,3.84521484375,0.18310546875,0.8648945585497604,-0.2393871883297219,-0.445204016235847,-15.9375,29.5625,-0.3125
418.5,2.01416015625,-0.48828125,-0.42724609375,0.8618427076021608,-0.2419507431257057,-0.4387340922269356,-15.25,31.0625,3.5625
419.0,1.0986328125,0.48828125,0.18310546875,0.8594012268440809,-0.2502517777031769,-0.4318979461043122,-14.625,27.4375,-0.3125
419.5,-0.79345703125,0.79345703125,0.3662109375,0.8596453749198889,-0.2480544450209051,-0.4420300912503433,-12.5625,28.125,9.375
420.0,0.48828125,-0.1220703125,0.1220703125,0.8626972258674886,-0.2458571123386334,-0.4320200201422162,8.3125,29.5625,26.6875
420.5,-0.30517578125,0.42724609375,0.244140625,0.8574480422376172,-0.2454908902249214,-0.4334849085970641,1.9375,32.8125,16.0
421.0,-1.3427734375,0.42724609375,-0.54931640625,0.8460951567125462,-0.2675862910855434,-0.4578997161778618,-6.8125,33.5625,15.625
421.5,-82.51953125,-84.228515625,29.72412109375,0.8934598834192938,-0.2619708853419599,-0.7777336954863124,-9.1875,31.0625,20.4375
422.0,-1.708984375,-67.07763671875,18.24951171875,-0.065309610278634,-0.0803247169408246,-0.7735831781975768,-10.5625,27.4375,19.125
422.5,30.33447265625,166.1376953125,-33.935546875,0.6467482528153325,-0.4723044526505325,-0.9911191137424848,-10.1875,31.0625,17.3125
423.0,-7.2021484375,21.42333984375,-19.95849609375,0.9753715628528704,-0.2727134006775109,-0.4729148228400525,-10.875,28.875,18.625
423.5,0.6103515625,-2.13623046875,-3.72314453125,0.9308145390179144,-0.0793481246375926,-0.3927121799371318,-9.5,30.3125,19.125
424.0,0.42724609375,-0.244140625,0.3662109375,0.8838160344248787,-0.0794701986754966,-0.43397320474868,-11.5,31.0625,13.8125
424.5,4.5166015625,7.2021484375,7.87353515625,0.8960234382152775,-0.0771507919553209,-0.4141972106082339,1.5625,31.375,20.4375
425.0,-0.06103515625,1.40380859375,-1.64794921875,0.9079866939298684,-0.1091341898861659,-0.402233954893643,-11.5,32.0625,7.625
425.5,8.1787109375,-6.103515625,2.13623046875,0.8973662526322215,-0.0991241187780388,-0.3858760338145085,-11.875,32.0625,6.6875
426.0,21.97265625,-53.89404296875,-2.44140625,0.8972441785943175,-0.1943418683431501,-0.6653035065767388,-12.1875,32.0625,8.4375
426.5,-17.15087890625,-70.556640625,0.42724609375,0.042970061342204,-0.2080141605883968,-0.8135013885921811,16.0625,37.1875,1.8125
427.0,-20.93505859375,102.1728515625,-4.94384765625,0.71767326883755,-0.4367809076204718,-0.8519547105319376,20.5,33.9375,-0.3125
427.5,0.42724609375,21.66748046875,-4.638671875,0.8496353038117619,-0.2534257026886807,-0.4850001525925473,9.6875,36.0625,7.625
428.0,-23.98681640625,-42.17529296875,29.47998046875,0.8000732444227424,-0.489394817957091,-0.5678884243293557,-14.875,29.5625,5.8125
428.5,5.55419921875,-35.5224609375,66.89453125,0.206671346171453,-0.6140324106570635,-0.553971984008301,-17.625,28.875,3.5625
429.0,10.009765625,0.0,9.3994140625,-0.1060823389385662,-0.7201147495956297,-0.5307779168065432,-16.9375,28.125,4.0625
429.5,-46.08154296875,63.720703125,-127.86865234375,0.3090914639728995,-0.5781426435132908,-0.6151310769981994,-17.625,27.75,4.5
430.0,6.8359375,4.8828125,-50.1708984375,0.9386272774437696,-0.2801599169896542,-0.5732596819971313,-18.0,29.5625,5.375
430.5,-3.173828125,0.8544921875,1.220703125,0.8834498123111667,-0.1254921109653004,-0.4115115817743461,-15.25,28.5,0.4375
431.0,0.18310546875,0.3662109375,1.8310546875,0.9107943968016602,-0.0875270851771599,-0.4172490615558336,-16.25,28.5,7.1875
431.5,0.3662109375,-0.42724609375,-0.9765625,0.8977324747459334,-0.1342814416943876,-0.4150517288735618,-7.1875,30.3125,20.0
432.0,3.72314453125,2.0751953125,1.28173828125,0.9039582506790368,-0.13037507248146,-0.4244514297921689,5.625,29.5625,25.8125
432.5,-1.0986328125,-4.45556640625,1.28173828125,0.9029816583758048,-0.1435590685750908,-0.4414197210608234,-3.125,33.9375,18.625
433.0,3.47900390625,10.8642578125,-2.13623046875,0.8785668507950072,-0.1486861781670583,-0.4731589709158604,-5.4375,34.6875,10.75
433.5,-5.18798828125,-128.2958984375,29.35791015625,0.6367381817072054,-0.1821344645527512,-0.858424634540849,-11.1875,30.6875,6.25
434.0,-28.86962890625,-26.55029296875,7.26318359375,-0.0876491592150639,-0.0889919736320078,-0.913357951597644,-5.4375,33.9375,8.9375
434.5,4.08935546875,83.251953125,38.26904296875,0.3759880367442854,-0.3746452223273415,-1.1264992217780083,17.375,32.0625,-0.8125
435.0,5.92041015625,24.169921875,-5.18798828125,0.6399121066927091,-0.3668324839014862,-0.6577349162266914,18.0625,36.4375,-4.375
435.5,-4.2724609375,-4.7607421875,2.38037109375,0.8338877529221472,-0.3543809320352794,-0.5517746513260292,-4.0625,33.1875,12.5
436.0,13.5498046875,-46.56982421875,59.2041015625,0.7864009521774956,-0.5609302041688284,-0.6579790643024994,-18.0,26.0,7.625
436.5,28.076171875,-17.333984375,49.072265625,0.0633564256721701,-0.6057313760795923,-0.4305551316873683,-17.625,26.6875,4.9375
437.0,-3.173828125,-4.33349609375,-0.18310546875,-0.1118198187200537,-0.7799310281685843,-0.4707174901577807,-16.625,26.0,6.25
437.5,-45.22705078125,63.29345703125,-100.09765625,0.6894741660817285,-0.4963530381176183,-0.6570024719992675,-18.0,28.125,6.25
438.0,-0.244140625,2.197265625,-51.3916015625,0.8965117343668936,-0.0909451582384716,-0.4649800103762932,-2.0625,34.6875,12.0625
438.5,-5.55419921875,2.44140625,2.62451171875,0.912991729483932,-0.0407727286599322,-0.4474013489181188,18.75,33.5625,-2.5625
439.0,-3.0517578125,-0.06103515625,-0.91552734375,0.912747581408124,-0.0197759941404461,-0.4248176519058809,21.125,32.8125,-0.3125
439.5,0.244140625,0.0,-0.42724609375,0.9059114352855008,-0.0545670949430829,-0.423474837488937,2.875,32.8125,12.5
440.0,39.24560546875,-95.703125,114.013671875,0.6574907681508835,-0.380260628070925,-0.6551713614307078,-10.1875,32.0625,7.1875
440.5,15.869140625,-24.4140625,33.5693359375,-0.0882595294045838,-0.6770226142155217,-0.5844904934842983,-10.875,31.75,8.4375
441.0,-1.5869140625,6.53076171875,-4.5166015625,-0.249397259437849,-0.7304910428174688,-0.5301675466170233,-12.1875,31.0625,7.625
441.5,-37.353515625,85.44921875,-100.9521484375,0.4766991180150761,-0.5575121311075167,-0.8188726462599567,-8.8125,30.3125,14.75
442.0,0.91552734375,12.20703125,-14.34326171875,0.7322000793481246,-0.3400982696005127,-0.5352946562089907,2.875,31.375,23.625
442.5,-2.86865234375,-5.31005859375,1.220703125,0.8529313028351695,-0.3061616870632038,-0.5630054628131962,8.6875,29.1875,23.125
443.0,0.0,-0.48828125,0.244140625,0.8413342692342906,-0.2854091006195257,-0.4759666737876522,-8.8125,31.0625,12.5
443.5,-31.18896484375,-59.6923828125,20.5078125,0.8297372356334116,-0.3169042023987548,-0.6863002410962249,-10.5625,31.4375,6.25
444.0,13.18359375,-88.80615234375,-1.8310546875,0.1890926847132786,-0.2077700125125889,-0.8857692190313425,-10.5625,36.4375,5.375
444.5,-0.732421875,-7.99560546875,-1.708984375,-0.2747886593218787,-0.1726126895962401,-0.825586718344676,-10.1875,31.375,8.0625
445.0,50.96435546875,133.7890625,-28.50341796875,0.5449385052034059,-0.4959868160039064,-0.9728080080568864,-10.1875,29.9375,7.625
445.5,-6.65283203125,17.4560546875,3.662109375,0.8215582750938444,-0.3161717581713309,-0.4828028199102755,-12.875,32.8125,4.5
446.0,0.1220703125,1.03759765625,-2.5634765625,0.8310800500503556,-0.3101901303140355,-0.4734031189916684,-10.875,31.0625,4.5
446.5,-0.54931640625,-2.62451171875,1.28173828125,0.8656270027771844,-0.2630695516830958,-0.4614398632770775,-11.1875,32.4375,7.1875
447.0,-2.86865234375,0.244140625,-1.8310546875,0.8487807855464339,-0.2786950285348064,-0.4555803094576861,-12.875,33.9375,7.1875
447.5,0.1220703125,2.8076171875,-0.06103515625,0.8526871547593615,-0.2984710226752525,-0.4698629718924528,-12.875,29.1875,6.25
448.0,0.54931640625,-3.11279296875,2.13623046875,0.8426770836512345,-0.2891933957945494,-0.456434827723014,-12.875,29.1875,5.375
448.5,2.9296875,4.94384765625,-1.40380859375,0.8312021240882596,-0.2745445112460707,-0.4801171910763878,-11.875,31.0625,7.1875
449.0,-0.18310546875,1.0986328125,1.15966796875,0.8594012268440809,-0.2468337046418653,-0.4652241584521012,-11.875,31.0625,6.6875
449.5,-2.9296875,-4.82177734375,1.3427734375,0.8542741172521134,-0.2511062959685049,-0.4737693411053804,-10.875,32.0625,6.6875
450.0,0.3662109375,2.3193359375,-0.30517578125,0.858790856654561,-0.228156376842555,-0.4640034180730613,3.9375,29.5625,18.625
450.5,-0.244140625,-1.220703125,1.220703125,0.8421887874996186,-0.2454908902249214,-0.4837794122135075,-4.125,34.6875,20.4375
451.0,2.5634765625,-3.60107421875,1.52587890625,0.8393810846278268,-0.2354808191167943,-0.47804193243202,-1.375,35.6875,5.375
451.5,2.38037109375,-8.7890625,5.43212890625,0.8440198980681783,-0.2744224372081667,-0.5200354014709921,20.125,32.0625,0.0625
452.0,-26.79443359375,-107.0556640625,20.01953125,0.6278267769402143,-0.401745658742027,-1.0183416241950742,16.75,36.0625,-1.25
452.5,32.65380859375,93.68896484375,-64.14794921875,-0.0957060457167272,-0.0177007354960783,-0.4570451979125339,-11.875,33.9375,5.8125
453.0,19.59228515625,-43.3349609375,67.9931640625,0.7151097140415662,-0.4511856440931425,-0.3973509933774834,-7.8125,32.8125,19.125
453.5,5.615234375,-39.12353515625,59.9365234375,0.0731223487044892,-0.7296365245521409,-0.5023346659749138,-0.6875,30.3125,19.5625
454.0,-13.0615234375,10.1318359375,-25.81787109375,-0.0880153813287759,-0.6921597949156163,-0.4732810449537644,-10.5625,31.75,9.375
454.5,-24.658203125,52.6123046875,-106.01806640625,0.8031250953703422,-0.4644917142246773,-0.6119571520126957,-12.5625,20.875,27.5625
455.0,-35.7666015625,-94.17724609375,50.78125,0.8576921903134251,-0.2091128269295327,-0.7093722342600788,-13.25,15.875,28.5
455.5,15.07568359375,-42.48046875,-24.90234375,0.0953398236030152,-0.1362346263008514,-0.8630634479812006,-15.5625,16.1875,27.125
456.0,7.50732421875,99.2431640625,4.08935546875,0.5620288705099643,-0.3012787255470442,-0.8117923520615253,-11.875,19.5,29.3125
456.5,-34.912109375,-43.212890625,-45.10498046875,0.4904934842982268,-0.1671193578905606,-0.793725394451735,-10.5625,22.375,25.375
457.0,-21.66748046875,4.0283203125,-2.62451171875,0.5008697775200659,0.3071382793664357,-0.7748039185766167,0.5625,25.25,24.0
457.5,-37.4755859375,5.0048828125,23.25439453125,0.6353953672902616,0.499649037141026,-0.5621509445478683,11.3125,33.5625,12.5
458.0,-23.49853515625,-7.14111328125,27.64892578125,0.6462599566637165,0.2911465804010132,-0.7037568285164952,20.5,32.8125,6.6875
458.5,-18.73779296875,-8.11767578125,37.53662109375,0.6775109103671376,0.107669301431318,-0.6866664632099369,16.75,35.3125,5.8125
459.0,3.173828125,-42.48046875,15.07568359375,0.6568803979613635,0.119144260994293,-0.8335215308084353,-11.875,32.0625,5.8125
459.5,39.12353515625,-5.18798828125,41.44287109375,0.2199774163029877,-0.4658345286416211,-0.7741935483870968,-13.5625,29.1875,7.1875
460.0,19.34814453125,-12.39013671875,37.841796875,0.0006103701895199,-0.5355388042847987,-0.7182836390270699,10.6875,35.0,15.1875
460.5,-15.5029296875,-10.31494140625,-23.01025390625,-0.0899685659352397,-0.5936460463270974,-0.7356181524094363,18.75,33.9375,8.9375
461.0,14.404296875,59.08203125,-113.70849609375,0.7414777062288278,-0.4939115573595385,-0.6782433545945616,18.75,31.375,7.1875
461.5,-14.16015625,-0.54931640625,5.55419921875,0.8718527787102878,-0.1202429273354289,-0.4410534989471114,-4.4375,34.3125,12.9375
462.0,13.12255859375,-76.0498046875,81.60400390625,0.3706167790765099,-0.3442487868892483,-0.684469130527665,-9.875,32.0625,14.75
462.5,28.1982421875,22.15576171875,26.06201171875,0.0260017700735496,-0.7053437910092472,-0.8758812219611194,16.4375,36.0625,4.5
463.0,-4.39453125,10.6201171875,-1.953125,-0.0621356852931302,-0.5486007263405255,-0.6518753624073,24.8125,29.9375,5.375
463.5,-10.07080078125,-1.8310546875,-104.55322265625,0.3442487868892483,-0.5080721457564012,-0.891262550737022,15.75,32.8125,8.0625
464.0,-17.9443359375,-2.9296875,21.1181640625,0.7678456984160894,-0.1960509048738059,-0.6711630603961303,-13.25,31.75,5.375
464.5,19.34814453125,-51.7578125,97.5341796875,0.2662434766685995,-0.4543595690786462,-0.67360454115421,-14.25,31.375,7.625
465.0,-14.34326171875,-1.77001953125,29.541015625,-0.1506393627735221,-0.5934018982512894,-0.7029023102511673,-12.875,29.5625,8.4375
465.5,-15.68603515625,-22.39990234375,-48.2177734375,-0.1058381908627582,-0.6025574510940885,-0.6041444135868405,-11.1875,29.9375,6.6875
466.0,-15.68603515625,62.31689453125,-64.88037109375,0.836451307718131,-0.4725486007263405,-0.6668904690694907,-12.875,31.75,7.625
466.5,3.173828125,15.93017578125,-6.53076171875,0.9514450514236884,-0.2430494094668416,-0.4419080172124393,-13.25,30.3125,8.9375
467.0,1.953125,-2.25830078125,-0.48828125,0.8806421094393749,-0.2197332682271797,-0.4011352885525071,-11.5,31.375,7.1875
467.5,7.62939453125,-5.0048828125,0.1220703125,0.8287606433301797,-0.2353587450788903,-0.4613177892391735,-14.625,30.3125,9.375
468.0,1.0986328125,6.4697265625,-8.6669921875,0.8401135288552507,-0.3065279091769158,-0.4388561662648396,-13.25,32.0625,9.8125
468.5,-2.8076171875,4.7607421875,2.25830078125,0.8222907193212683,-0.2142399365215002,-0.4831690420239875,-13.25,30.3125,7.1875
469.0,-8.1787109375,6.40869140625,-2.25830078125,0.8596453749198889,-0.1981261635181737,-0.4723044526505325,-12.1875,30.3125,12.9375
469.5,-4.69970703125,0.732421875,-4.39453125,0.8745384075441756,-0.130008850367748,-0.5241859187597278,-8.125,33.5625,11.125
470.0,-3.23486328125,1.40380859375,4.57763671875,0.8777123325296793,-0.1395306253242591,-0.4743797112949003,-1.75,37.5625,-1.6875
470.5,1.64794921875,1.52587890625,-2.38037109375,0.8355967894528031,-0.1656544694357127,-0.4797509689626759,4.9375,37.1875,7.1875
471.0,0.30517578125,0.9765625,0.0,0.8182622760704367,-0.1551561021759697,-0.5030671102023377,4.25,36.0625,9.375
471.5,-1.64794921875,4.150390625,9.3994140625,0.8231452375865963,-0.1763969847712637,-0.5698416089358196,7.625,34.3125,15.1875
472.0,37.2314453125,-12.75634765625,-3.84521484375,0.6900845362712485,-0.4316537980285043,-0.620014038514359,23.5,32.0625,2.75
472.5,-2.38037109375,25.45166015625,-1.708984375,0.4099246192815943,-0.6029236732078005,-0.6516312143314921,21.4375,31.0625,-1.6875
