time,RSHO_gyr_x,RSHO_gyr_y,RSHO_gyr_z,RSHO_acc_x,RSHO_acc_y,RSHO_acc_z,RSHO_mag_x,RSHO_mag_y,RSHO_mag_z
0.0,-0.06103515625,0.0,0.06103515625,0.2989593188268685,0.3894161809137241,-0.8608661152989288,-7.0625,-27.875,19.5
0.5,-0.6103515625,0.42724609375,0.18310546875,0.2992034669026764,0.3878292184209723,-0.8541520432142095,-5.9375,-29.375,20.75
1.0,-0.244140625,-0.6103515625,-0.6103515625,0.2973723563341166,0.3900265511032441,-0.858424634540849,-6.3125,-29.75,21.0625
1.5,0.3662109375,-0.1220703125,0.30517578125,0.3016449476607562,0.3905148472548601,-0.8618427076021608,-5.1875,-28.25,19.125
2.0,0.06103515625,0.18310546875,0.42724609375,0.2993255409405804,0.3941770683919797,-0.8607440412610248,-5.1875,-26.375,21.5
2.5,0.0,0.1220703125,0.30517578125,0.293588061159093,0.3870967741935484,-0.858912930692465,-7.0625,-29.75,18.6875
3.0,1.03759765625,-0.8544921875,0.06103515625,0.3054292428357799,0.391247291482284,-0.8470717490157781,-6.6875,-30.125,15.5625
3.5,-0.18310546875,-0.48828125,-0.54931640625,0.3079927976317637,0.3962523270363475,-0.8489028595843379,-5.9375,-29.75,20.3125
4.0,-0.8544921875,0.732421875,0.244140625,0.2937101351969969,0.391247291482284,-0.8536637470625935,-5.1875,-29.75,18.75
4.5,-3.60107421875,6.34765625,0.06103515625,0.3455916013061922,0.4140751365703299,-0.8633075960570086,-6.6875,-29.0,17.125
5.0,-19.8974609375,-10.1318359375,-17.76123046875,0.3205664235358745,0.5091708120975371,-0.7740714743491928,-4.0,-33.75,15.5625
5.5,-0.06103515625,2.50244140625,2.99072265625,0.2551347392193365,0.6119571520126957,-0.7478255561998352,-1.6875,-33.375,14.375
6.0,28.3203125,9.3994140625,51.025390625,0.5576342051454207,0.4754783776360362,-0.7815179906613361,-10.875,-29.75,14.375
6.5,-10.19287109375,7.080078125,5.615234375,0.543717764824366,0.3617053743095187,-0.7583239234595782,-13.5625,-27.875,15.1875
7.0,1.89208984375,0.3662109375,-7.32421875,0.4837794122135075,0.3593859675893429,-0.7885982848597675,-15.4375,-29.375,18.75
7.5,-6.8359375,-10.07080078125,-23.92578125,0.3200781273842585,0.5074617755668813,-0.7586901455732902,-5.1875,-33.375,14.75
8.0,-0.244140625,2.38037109375,-5.67626953125,0.2180242316965239,0.5023346659749138,-0.8340098269600513,-3.25,-31.9375,17.125
8.5,-7.87353515625,-4.8828125,-2.50244140625,0.2802819910275582,0.5042878505813776,-0.8008056886501663,-6.3125,-33.0625,13.5625
9.0,-4.45556640625,3.47900390625,-5.55419921875,0.2959074678792688,0.5206457716605121,-0.8115482039857174,-2.0625,-30.875,13.5625
9.5,11.23046875,11.3525390625,14.22119140625,0.3205664235358745,0.4978179265724662,-0.7888424329355754,-6.6875,-30.125,17.9375
10.0,2.9296875,-3.84521484375,-4.7607421875,0.3861201818903165,0.357921079134495,-0.8288827173680837,-9.6875,-29.375,15.9375
10.5,-1.52587890625,1.708984375,-0.8544921875,0.3730582598345897,0.4152958769493698,-0.8126468703268532,-7.5,-32.3125,16.3125
11.0,-0.54931640625,-11.5966796875,-12.87841796875,0.3202002014221625,0.4047975096896267,-0.8458510086367382,-5.5625,-31.25,17.9375
11.5,-4.82177734375,-11.5966796875,-11.3525390625,0.2705160679952391,0.5007477034821619,-0.793115024262215,-1.6875,-30.875,19.5
12.0,-0.18310546875,-0.30517578125,-0.06103515625,0.2257148960844752,0.554338206122013,-0.8049562059389019,-4.0,-32.3125,16.6875
12.5,18.1884765625,6.16455078125,9.33837890625,0.3309427167577135,0.2920010986663411,-0.9110385448774682,-7.5,-26.75,23.0625
13.0,2.25830078125,-5.79833984375,-2.8076171875,0.2769859920041505,0.3878292184209723,-0.8753929258095035,-4.375,-27.5,21.0625
13.5,0.3662109375,2.197265625,1.03759765625,0.3015228736228522,0.3549913022247993,-0.879665517136143,-6.3125,-27.5,18.75
14.0,0.18310546875,0.8544921875,0.732421875,0.2911465804010132,0.3509628589739677,-0.8667256691183203,-5.1875,-27.875,21.0625
14.5,-0.06103515625,0.732421875,0.48828125,0.3126316110721152,0.359019745475631,-0.8713644825586718,-5.9375,-28.25,19.125
15.0,0.244140625,0.1220703125,0.244140625,0.2973723563341166,0.3507187108981597,-0.8771019623401594,-5.1875,-25.75,19.125
15.5,0.54931640625,-0.244140625,0.0,0.2965178380687887,0.3459578234199041,-0.8783227027191992,-5.5625,-30.125,21.875
16.0,1.15966796875,12.3291015625,2.50244140625,0.2993255409405804,0.3752555925168614,-0.8509781182287057,-10.125,-27.5,19.9375
16.5,10.80322265625,-14.83154296875,16.11328125,0.3538926358836634,0.2325510422070986,-0.8581804864650411,-15.8125,-25.0,24.3125
17.0,7.01904296875,1.953125,-7.8125,0.5393230994598224,0.2896816919461653,-0.7768791772209845,-9.3125,-28.625,20.3125
17.5,-6.28662109375,-11.53564453125,-15.625,0.2898037659840693,0.3338724936674093,-0.8458510086367382,-4.75,-30.5,18.75
18.0,14.0380859375,26.85546875,6.2255859375,0.2695394756920072,0.4499649037141026,-0.8205816827906125,-12.0,-27.5,19.9375
18.5,-4.39453125,4.33349609375,-4.39453125,0.5011139255958739,0.2962736899929807,-0.8084963530381176,-13.9375,-27.875,17.5
19.0,-11.16943359375,-7.568359375,-14.6484375,0.4399548326059755,0.4106570635090182,-0.8078859828485977,-10.125,-31.25,13.9375
19.5,-5.55419921875,-6.591796875,-17.63916015625,0.2691732535782952,0.554216132084109,-0.7699209570604572,-1.6875,-34.5,16.6875
20.0,4.5166015625,1.46484375,2.685546875,0.2546464430677205,0.5776543473616749,-0.7755363628040407,-7.5,-32.6875,18.75
20.5,22.216796875,4.0283203125,32.77587890625,0.4279915768913846,0.4057741019928587,-0.7995849482711265,-12.4375,-27.5,19.125
21.0,-32.958984375,7.080078125,-23.62060546875,0.4002807702871792,0.4121219519638661,-0.8114261299478134,-7.5,-31.5625,14.75
21.5,-0.1220703125,-16.7236328125,-5.0048828125,0.3770867030854213,0.4438612018189031,-0.7893307290871914,-6.6875,-33.0625,14.375
22.0,0.18310546875,-2.9296875,-3.23486328125,0.3455916013061922,0.4948881496627704,-0.7679677724539934,-6.6875,-32.3125,15.5625
22.5,5.79833984375,-5.67626953125,0.30517578125,0.3191015350810266,0.4629047517319254,-0.7975096896267586,-4.75,-31.5625,19.9375
23.0,-1.0986328125,-0.54931640625,3.35693359375,0.3575548570207831,0.4802392651142918,-0.7907956175420392,-6.6875,-27.5,16.6875
23.5,-1.46484375,4.08935546875,-1.46484375,0.3419293801690725,0.4371471297341838,-0.8222907193212683,-7.5,-33.0625,16.6875
24.0,0.06103515625,0.48828125,-0.06103515625,0.3463240455336161,0.4577776421399578,-0.8200933866389966,-5.9375,-29.0,20.3125
24.5,2.86865234375,1.15966796875,-2.5634765625,0.3308206427198095,0.4119998779259621,-0.8226569414349804,-8.5625,-29.0,20.75
25.0,-3.7841796875,-0.67138671875,6.28662109375,0.3457136753440962,0.4187139500106814,-0.8303476058229317,-8.5625,-30.875,20.75
25.5,-0.3662109375,0.8544921875,-0.9765625,0.3242286446729941,0.4209112826929533,-0.8250984221930601,-5.9375,-30.125,15.9375
26.0,1.3427734375,0.42724609375,-1.40380859375,0.3440046388134403,0.4204229865413373,-0.826075014496292,-7.0625,-30.875,16.3125
26.5,-0.54931640625,-0.79345703125,0.42724609375,0.3470564897610401,0.4246955778679769,-0.826197088534196,-5.1875,-28.625,19.9375
27.0,0.3662109375,-1.64794921875,-0.3662109375,0.3503524887844477,0.4323862422559282,-0.8290047914059877,-7.5,-28.25,17.9375
27.5,1.64794921875,0.30517578125,-2.197265625,0.3355815301980651,0.4199346903897213,-0.826563310647908,-7.0625,-30.5,18.75
28.0,-0.42724609375,-0.91552734375,0.1220703125,0.3360698263496811,0.4167607654042176,-0.826807458723716,-5.9375,-30.5,18.75
28.5,-0.79345703125,-0.42724609375,1.03759765625,0.3304544206060976,0.423963133640553,-0.8286385692922758,-6.3125,-28.25,18.75
29.0,0.0,0.1220703125,0.244140625,0.3374126407666249,0.4187139500106814,-0.8330332346568193,-8.1875,-29.75,17.125
29.5,1.64794921875,0.1220703125,-2.13623046875,0.3286233100375377,0.413098544267098,-0.836329233680227,-6.6875,-30.875,19.5625
30.0,0.244140625,-0.79345703125,-0.42724609375,0.3331400494399854,0.4094363231299783,-0.8397473067415387,-5.9375,-28.25,18.3125
30.5,-0.79345703125,0.06103515625,0.54931640625,0.3283791619617298,0.412732322153386,-0.8315683462019715,-7.8125,-29.375,21.875
31.0,-0.732421875,0.54931640625,-0.54931640625,0.3309427167577135,0.4156620990630817,-0.8335215308084353,-6.6875,-29.0,23.0625
31.5,0.244140625,0.18310546875,-0.244140625,0.3359477523117771,0.4140751365703299,-0.8323007904293954,-8.5625,-31.9375,15.9375
32.0,-0.18310546875,-0.1220703125,-0.18310546875,0.3383892330698568,0.4203009125034333,-0.8296151615955076,-5.1875,-30.5,18.3125
32.5,-0.30517578125,0.06103515625,0.1220703125,0.3394878994109928,0.4179815057832575,-0.8287606433301797,-5.9375,-30.875,19.9375
33.0,-1.5869140625,1.46484375,-1.0986328125,0.3381450849940489,0.4187139500106814,-0.826563310647908,-6.6875,-30.5,17.5
33.5,-15.31982421875,-1.77001953125,-4.33349609375,0.3864864040040284,0.466933194982757,-0.7903073213904233,0.875,-32.6875,14.375
34.0,-3.2958984375,6.04248046875,-8.72802734375,0.1685842463454085,0.6150090029602954,-0.7699209570604572,-2.5,-34.125,15.9375
34.5,3.2958984375,12.20703125,21.42333984375,0.1975157933286538,0.6062196722312082,-0.7014374217963195,-13.9375,-28.625,17.9375
35.0,-14.95361328125,5.55419921875,19.34814453125,0.4538712729270302,0.3253273110141301,-0.8185064241462447,-13.9375,-25.375,18.3125
35.5,-2.86865234375,-16.2353515625,-0.42724609375,0.4587542344431898,0.3137302774132511,-0.8235114597003083,-6.3125,-30.875,15.5625
36.0,9.033203125,23.13232421875,1.52587890625,0.4373912778099917,0.5044099246192816,-0.7815179906613361,-7.0625,-31.9375,19.9375
36.5,7.50732421875,-7.32421875,-4.82177734375,0.2898037659840693,0.4410534989471114,-0.8393810846278268,-7.5,-29.375,19.125
37.0,-1.46484375,5.37109375,-1.28173828125,0.3314310129093295,0.4223761711478011,-0.8231452375865963,-5.9375,-32.3125,18.75
37.5,0.244140625,1.8310546875,2.50244140625,0.4171269875179296,0.4063844721823786,-0.7997070223090305,-7.5,-30.125,18.75
38.0,-3.35693359375,4.5166015625,-0.91552734375,0.3483993041779839,0.4734031189916684,-0.8065431684316537,-5.5625,-27.5,20.3125
38.5,9.70458984375,-14.34326171875,-1.77001953125,0.1944639423810541,0.358287301248207,-0.8784447767571032,-4.375,-27.875,23.5
39.0,-2.38037109375,1.15966796875,-0.18310546875,0.2381664479506821,0.3853877376628925,-0.8719748527481918,-3.625,-28.625,19.9375
39.5,-0.3662109375,0.3662109375,0.1220703125,0.2346263008514664,0.3848994415112766,-0.8846705526902066,-4.0,-29.0,18.75
40.0,-1.89208984375,4.82177734375,-1.89208984375,0.2439039277321695,0.3946653645435957,-0.879665517136143,-4.0,-29.375,20.3125
40.5,2.74658203125,-5.37109375,-2.0751953125,0.2144840845973082,0.369273964659566,-0.8764915921506393,-5.1875,-30.875,18.3125
41.0,-4.57763671875,-4.33349609375,5.859375,0.2813806573686941,0.4046754356517227,-0.8600115970336009,-3.625,-28.625,21.0625
41.5,-1.03759765625,2.62451171875,-2.13623046875,0.2666096987823114,0.3847773674733726,-0.8604998931852168,-4.75,-28.625,19.5
42.0,1.64794921875,-1.64794921875,-0.79345703125,0.2701498458815271,0.4068727683339945,-0.8670918912320322,-5.5625,-29.0,16.3125
42.5,-0.79345703125,0.18310546875,2.9296875,0.2688070314645833,0.3941770683919797,-0.868923001800592,-4.75,-29.0,21.5
43.0,0.30517578125,0.244140625,-0.30517578125,0.2740562150944547,0.390881069368572,-0.8668477431562243,-4.375,-28.25,20.75
43.5,0.1220703125,-0.1220703125,-0.06103515625,0.2702719199194311,0.3932004760887478,-0.8694112979522081,-4.0,-29.375,19.9375
44.0,-0.1220703125,0.1220703125,-0.18310546875,0.2727134006775109,0.3918576616718039,-0.870265816217536,-5.9375,-30.125,20.75
44.5,-0.06103515625,0.0,0.0,0.2747886593218787,0.390758995330668,-0.8711203344828639,-5.5625,-29.375,19.5625
45.0,-0.18310546875,0.244140625,0.30517578125,0.2699056978057191,0.3903927732169561,-0.8708761864070559,-4.0,-33.75,14.75
45.5,-29.47998046875,-8.544921875,-16.29638671875,0.314828943754387,0.4925687429425947,-0.7977538377025666,-5.9375,-34.5,15.1875
46.0,4.150390625,8.60595703125,12.87841796875,0.2595294045838801,0.6130558183538316,-0.750144962920011,-14.3125,-29.375,15.5625
46.5,-12.14599609375,15.80810546875,8.72802734375,0.4425183874019593,0.4116336558122501,-0.8117923520615253,-5.9375,-31.9375,13.9375
47.0,-4.21142578125,-6.16455078125,-23.25439453125,0.4602191228980377,0.4543595690786462,-0.7644276253547777,-5.9375,-32.3125,17.9375
47.5,2.197265625,4.2724609375,2.74658203125,0.2674642170476394,0.5362712485122226,-0.7979979857783746,-3.25,-32.6875,18.3125
48.0,-6.77490234375,-4.08935546875,-11.5966796875,0.3303323465681936,0.5023346659749138,-0.7982421338541825,-7.0625,-30.875,18.3125
48.5,2.8076171875,4.57763671875,2.9296875,0.2334055604724265,0.5019684438612018,-0.8059327982421338,-6.3125,-27.125,19.5
49.0,10.68115234375,3.7841796875,7.9345703125,0.4105349894711142,0.4152958769493698,-0.8075197607348857,-4.375,-30.5,20.3125
49.5,-3.7841796875,-0.67138671875,-4.08935546875,0.2666096987823114,0.3962523270363475,-0.8426770836512345,-5.5625,-27.125,21.0625
50.0,0.91552734375,-0.30517578125,2.3193359375,0.3169042023987548,0.4220099490340891,-0.825586718344676,-5.9375,-29.75,20.75
50.5,0.244140625,1.708984375,4.2724609375,0.2841883602404859,0.3888058107242042,-0.8706320383312479,-5.9375,-27.875,22.6875
51.0,-0.54931640625,0.48828125,0.1220703125,0.2734458449049348,0.3758659627063814,-0.869533371990112,-7.5,-29.375,16.6875
51.5,-0.6103515625,2.685546875,0.8544921875,0.271492660298471,0.3704947050386059,-0.8780785546433912,-5.5625,-28.625,18.75
52.0,-0.244140625,-0.54931640625,-1.46484375,0.3620715964232306,0.4336069826349681,-0.8314462721640675,-4.75,-30.5,20.75
52.5,1.64794921875,0.79345703125,-2.38037109375,0.3706167790765099,0.4138309884945219,-0.8219244972075563,-5.5625,-29.375,18.3125
53.0,-4.57763671875,8.11767578125,-1.0986328125,0.3082369457075716,0.4140751365703299,-0.8436536759544664,-5.5625,-31.25,17.5
53.5,2.13623046875,-4.69970703125,3.5400390625,0.379528183843501,0.4707174901577807,-0.8120365001373333,-6.6875,-28.625,23.0625
54.0,3.662109375,-0.9765625,-2.25830078125,0.2686849574266793,0.357921079134495,-0.8795434430982391,-6.3125,-27.5,19.5
54.5,-0.67138671875,1.89208984375,0.91552734375,0.3003021332438124,0.3971068453016754,-0.8570818201239051,-5.1875,-29.75,19.5
55.0,0.1220703125,0.0,-0.30517578125,0.3017670216986602,0.3883175145725883,-0.8595233008819849,-5.1875,-27.5,20.75
55.5,-0.244140625,-0.06103515625,-0.3662109375,0.2993255409405804,0.390881069368572,-0.8561052278206732,-6.3125,-30.125,15.9375
56.0,0.42724609375,-0.6103515625,-0.1220703125,0.2993255409405804,0.3879512924588763,-0.8661152989288003,-6.3125,-28.25,17.9375
56.5,0.42724609375,0.244140625,0.48828125,0.2970061342204046,0.3890499588000122,-0.859157078768273,-7.0625,-28.625,19.9375
57.0,1.46484375,3.662109375,-1.220703125,0.3117770928067873,0.3859981078524125,-0.8521988586077456,-5.5625,-30.125,20.3125
57.5,0.0,-0.54931640625,0.0,0.3088473158970916,0.3900265511032441,-0.8525650807214575,-7.0625,-29.75,20.75
58.0,-0.06103515625,-0.48828125,0.06103515625,0.3100680562761315,0.3852656636249885,-0.8576921903134251,-5.1875,-30.125,23.875
58.5,0.1220703125,-0.06103515625,0.0,0.3056733909115878,0.3850215155491805,-0.8558610797448652,-5.5625,-29.375,19.125
59.0,-0.1220703125,0.0,0.06103515625,0.3089693899349955,0.3875850703451643,-0.8546403393658254,-6.6875,-27.125,19.9375
59.5,0.42724609375,-1.220703125,-0.54931640625,0.2963957640308847,0.3878292184209723,-0.858668782616657,-6.6875,-29.75,19.5625
60.0,0.3662109375,-0.18310546875,0.18310546875,0.3011566515091403,0.3873409222693563,-0.8619647816400647,-5.5625,-26.375,21.0625
60.5,0.18310546875,0.244140625,0.42724609375,0.2954191717276528,0.3859981078524125,-0.8570818201239051,-5.1875,-28.25,21.0625
61.0,0.1220703125,0.244140625,0.244140625,0.30359813226722,0.3883175145725883,-0.8612323374126407,-6.3125,-30.875,19.5625
61.5,-0.06103515625,-0.06103515625,-0.1220703125,0.3050630207220679,0.3852656636249885,-0.8602557451094088,-5.5625,-28.25,19.5625
62.0,-0.1220703125,-0.244140625,0.18310546875,0.3114108706930753,0.3877071443830683,-0.8598895229956969,-6.3125,-30.125,19.9375
62.5,-0.30517578125,-0.1220703125,-0.18310546875,0.3068941312906277,0.3840449232459487,-0.8608661152989288,-4.75,-30.5,20.75
63.0,-0.42724609375,0.42724609375,0.0,0.3075045014801477,0.3878292184209723,-0.8569597460860011,-4.375,-27.875,19.9375
63.5,-0.1220703125,0.1220703125,0.244140625,0.3028656880397961,0.3872188482314523,-0.8626972258674886,-8.5625,-27.125,17.5
64.0,0.30517578125,-0.244140625,0.1220703125,0.3029877620777001,0.3817255165257728,-0.859157078768273,-6.3125,-30.5,18.3125
64.5,0.06103515625,0.06103515625,-0.1220703125,0.2995696890163884,0.3825800347911008,-0.8564714499343852,-5.5625,-27.875,19.125
65.0,-0.1220703125,0.54931640625,0.8544921875,0.3018890957365642,0.3855098117007965,-0.8614764854884488,-5.5625,-29.375,18.75
65.5,-0.18310546875,0.06103515625,0.06103515625,0.3003021332438124,0.3855098117007965,-0.8574480422376172,-7.5,-29.75,20.75
66.0,-0.18310546875,0.18310546875,0.244140625,0.3033539841914121,0.3857539597766045,-0.8580584124271371,-5.9375,-27.125,18.75
66.5,0.1220703125,0.244140625,0.18310546875,0.3071382793664357,0.3874629963072603,-0.8551286355174413,-7.5,-29.0,19.9375
67.0,-0.06103515625,0.48828125,0.244140625,0.3026215399639881,0.3863643299661244,-0.8598895229956969,-6.3125,-30.125,21.0625
67.5,-0.1220703125,0.0,0.0,0.3057954649494919,0.3899044770653401,-0.858424634540849,-5.1875,-26.375,15.1875
68.0,0.0,-0.18310546875,0.0,0.3037202063051241,0.3855098117007965,-0.8561052278206732,-6.6875,-28.625,20.75
68.5,0.06103515625,-0.48828125,-0.18310546875,0.3037202063051241,0.379650257881405,-0.8598895229956969,-4.375,-30.5,19.125
69.0,-0.18310546875,-0.244140625,-0.30517578125,0.2994476149784844,0.3830683309427167,-0.8595233008819849,-6.6875,-29.0,21.0625
69.5,-0.3662109375,-0.06103515625,-0.244140625,0.2994476149784844,0.3835566270943327,-0.8612323374126407,-5.1875,-28.625,19.5
70.0,0.30517578125,-0.3662109375,0.3662109375,0.3017670216986602,0.3846552934354686,-0.8604998931852168,-5.9375,-29.375,19.5625
70.5,0.18310546875,-0.18310546875,0.244140625,0.3089693899349955,0.3856318857387005,-0.8656270027771844,-6.3125,-29.375,18.3125
71.0,0.3662109375,-0.48828125,-0.1220703125,0.2960295419171728,0.3833124790185247,-0.8653828547013764,-5.1875,-29.75,17.9375
71.5,0.67138671875,-0.54931640625,0.0,0.2979827265236366,0.3824579607531968,-0.8628192999053926,-5.9375,-29.0,22.6875
72.0,0.1220703125,-0.3662109375,0.18310546875,0.2993255409405804,0.3839228492080447,-0.8662373729667043,-5.9375,-29.75,19.9375
72.5,-0.3662109375,0.3662109375,-0.732421875,0.2945646534623249,0.3845332193975646,-0.8612323374126407,-6.6875,-27.5,21.875
73.0,-0.54931640625,0.244140625,0.3662109375,0.2965178380687887,0.3877071443830683,-0.8613544114505447,-7.8125,-27.875,22.6875
73.5,0.06103515625,0.244140625,0.244140625,0.2905362102114933,0.3881954405346843,-0.8613544114505447,-6.6875,-27.125,20.3125
74.0,0.48828125,-0.6103515625,-0.18310546875,0.2978606524857325,0.3818475905636769,-0.8628192999053926,-5.1875,-29.75,18.3125
74.5,0.1220703125,-0.1220703125,0.42724609375,0.2976165044099246,0.380504776146733,-0.8628192999053926,-6.6875,-29.75,19.125
75.0,-0.06103515625,0.0,0.1220703125,0.2950529496139408,0.3773308511612293,-0.858912930692465,-5.9375,-30.5,18.3125
75.5,-0.18310546875,-0.30517578125,-0.30517578125,0.2966399121066927,0.3840449232459487,-0.8608661152989288,-5.9375,-28.25,19.125
76.0,0.06103515625,-1.3427734375,-0.54931640625,0.2939542832728049,0.3792840357676931,-0.8611102633747367,-5.9375,-28.625,18.75
76.5,0.3662109375,0.18310546875,0.18310546875,0.2910245063631092,0.3881954405346843,-0.8657490768150884,-5.5625,-28.25,18.75
77.0,-0.06103515625,0.244140625,0.3662109375,0.3048188726462599,0.3858760338145085,-0.8639179662465285,-5.9375,-29.375,23.5
77.5,0.18310546875,-0.42724609375,-0.06103515625,0.2981048005615406,0.3783074434644612,-0.8612323374126407,-6.3125,-27.125,22.6875
78.0,0.06103515625,-0.18310546875,0.42724609375,0.2940763573107089,0.3774529251991332,-0.8624530777916807,-7.8125,-30.125,21.0625
78.5,-0.1220703125,-0.06103515625,0.0,0.2992034669026764,0.3827021088290048,-0.8635517441328165,-4.75,-29.75,22.3125
79.0,-0.244140625,0.06103515625,-0.244140625,0.2957853938413647,0.3838007751701406,-0.8623310037537767,-5.5625,-29.375,21.875
79.5,-0.3662109375,0.0,-0.06103515625,0.2985930967131565,0.3858760338145085,-0.8628192999053926,-5.1875,-27.5,19.9375
80.0,0.30517578125,-0.1220703125,0.1220703125,0.2952970976897488,0.379894405957213,-0.8615985595263528,-5.5625,-27.875,17.125
80.5,0.18310546875,-0.48828125,0.244140625,0.3009125034333323,0.3816034424878688,-0.8669698171941282,-7.5,-29.375,17.125
81.0,0.1220703125,0.06103515625,0.3662109375,0.304086428418836,0.3816034424878688,-0.8661152989288003,-7.0625,-28.25,19.125
81.5,0.06103515625,-0.244140625,0.06103515625,0.2967619861445967,0.380382702108829,-0.8623310037537767,-6.3125,-30.125,22.6875
82.0,0.06103515625,-0.18310546875,0.0,0.2939542832728049,0.380626850184637,-0.8635517441328165,-5.9375,-30.125,19.9375
82.5,-0.244140625,-0.1220703125,-0.30517578125,0.2996917630542924,0.3846552934354686,-0.8596453749198889,-5.9375,-29.375,17.5
83.0,0.06103515625,-0.1220703125,0.0,0.2989593188268685,0.3819696646015809,-0.8644062623981444,-7.8125,-30.5,19.9375
83.5,0.1220703125,-0.1220703125,0.06103515625,0.2994476149784844,0.3830683309427167,-0.8629413739432966,-5.5625,-26.375,17.9375
84.0,-0.06103515625,-0.30517578125,0.0,0.2995696890163884,0.380382702108829,-0.8644062623981444,-5.5625,-28.625,19.9375
84.5,0.1220703125,0.1220703125,0.3662109375,0.303964354380932,0.380504776146733,-0.8694112979522081,-7.0625,-29.0,20.3125
85.0,-0.30517578125,0.54931640625,0.06103515625,0.293465987121189,0.3859981078524125,-0.8600115970336009,-1.6875,-32.6875,18.3125
85.5,-0.48828125,0.244140625,-0.06103515625,0.3011566515091403,0.3786736655781731,-0.8594012268440809,-4.75,-30.125,19.5625
86.0,-23.92578125,-4.69970703125,-16.845703125,0.3568224127933592,0.4329966124454482,-0.836573381756035,-11.625,-31.25,16.3125
86.5,-0.8544921875,2.9296875,-0.91552734375,0.2348704489272743,0.5455488753929258,-0.8088625751518296,-4.75,-30.125,14.75
87.0,6.77490234375,4.7607421875,23.3154296875,0.4091921750541704,0.4038209173863948,-0.8003173924985504,-5.1875,-31.25,18.75
87.5,-12.6953125,-14.83154296875,-33.3251953125,0.2888271736808374,0.4806054872280038,-0.7882320627460555,-4.375,-29.375,20.3125
88.0,0.244140625,-20.44677734375,0.3662109375,0.3686635944700461,0.5251625110629596,-0.7895748771629993,-4.75,-31.5625,17.9375
88.5,0.244140625,1.77001953125,-2.62451171875,0.2772301400799585,0.4301889095736564,-0.8514664143803217,-7.0625,-31.5625,15.1875
89.0,-1.15966796875,3.41796875,0.8544921875,0.2901699880977813,0.4355601672414319,-0.8523209326456496,-5.5625,-28.625,16.6875
89.5,0.42724609375,0.91552734375,-2.3193359375,0.3208105716116824,0.4470351268044069,-0.8244880520035401,-7.8125,-30.875,19.5625
90.0,2.44140625,-4.21142578125,2.62451171875,0.3492538224433119,0.4637592699972533,-0.8061769463179418,-3.625,-31.25,19.5625
90.5,2.99072265625,-1.46484375,-7.2021484375,0.2679525131992553,0.3925901058992279,-0.8568376720480971,-5.9375,-29.375,19.125
91.0,0.30517578125,0.1220703125,0.91552734375,0.2882168034913175,0.4143192846461379,-0.8507339701528978,-6.3125,-29.75,17.125
91.5,0.30517578125,-0.67138671875,-0.48828125,0.2909024323252052,0.4082155827509384,-0.8548844874416334,-5.5625,-27.5,17.5
92.0,0.3662109375,0.0,-0.06103515625,0.2899258400219733,0.4159062471388897,-0.8581804864650411,-4.75,-29.375,17.5
92.5,0.3662109375,-0.244140625,0.42724609375,0.3077486495559557,0.4093142490920743,-0.8564714499343852,-4.75,-29.375,19.125
93.0,-0.48828125,0.6103515625,-0.1220703125,0.3001800592059084,0.4096804712057863,-0.8542741172521134,-7.0625,-30.5,18.75
93.5,-0.1220703125,-0.3662109375,-0.1220703125,0.2961516159550768,0.4095583971678823,-0.8558610797448652,-5.5625,-30.125,17.9375
94.0,0.1220703125,-0.54931640625,-0.18310546875,0.2909024323252052,0.4015015106662191,-0.8528092287972655,-7.0625,-29.375,18.75
94.5,-0.1220703125,-0.30517578125,1.5869140625,0.2909024323252052,0.4040650654622028,-0.8420667134617146,-5.1875,-30.5,15.5625
95.0,1.0986328125,-2.25830078125,0.8544921875,0.2662434766685995,0.3861201818903165,-0.8639179662465285,-5.9375,-29.375,22.6875
95.5,-0.8544921875,0.9765625,-0.244140625,0.2796716208380382,0.3885616626483962,-0.8626972258674886,-8.9375,-30.875,21.5
96.0,0.244140625,-0.18310546875,-0.67138671875,0.2850428785058138,0.4004028443250831,-0.8653828547013764,-5.1875,-30.875,18.3125
96.5,0.06103515625,-1.15966796875,-0.732421875,0.282967619861446,0.3962523270363475,-0.8650166325876644,-5.5625,-29.375,18.75
97.0,-0.06103515625,0.30517578125,0.1220703125,0.2779625843073824,0.3924680318613239,-0.8658711508529924,-4.375,-29.75,19.5625
97.5,0.06103515625,0.0,0.0,0.2805261391033662,0.3923459578234199,-0.8650166325876644,-5.1875,-28.625,20.3125
98.0,0.0,-0.18310546875,-0.244140625,0.2810144352549821,0.3933225501266518,-0.8670918912320322,-6.3125,-29.75,17.9375
98.5,-0.06103515625,0.0,-0.54931640625,0.2807702871791742,0.3955198828089236,-0.8681905575731681,-5.9375,-28.625,19.5
99.0,-0.18310546875,0.244140625,0.18310546875,0.282357249671926,0.4028443250831629,-0.8598895229956969,-5.1875,-29.0,18.3125
99.5,0.48828125,-0.3662109375,0.3662109375,0.2733237708670308,0.3962523270363475,-0.8635517441328165,-6.6875,-28.625,19.5
100.0,0.0,-0.1220703125,0.0,0.2790612506485183,0.3916135135959959,-0.8662373729667043,-5.9375,-27.5,20.3125
100.5,0.0,-0.244140625,0.0,0.2794274727622303,0.3939329203161718,-0.8613544114505447,-6.3125,-30.5,17.9375
101.0,-0.06103515625,-0.1220703125,-0.18310546875,0.2780846583452864,0.391369365520188,-0.8683126316110721,-7.0625,-29.0,17.5
101.5,-0.18310546875,-0.1220703125,-0.244140625,0.2777184362315744,0.3942991424298837,-0.869899594103824,-4.75,-31.25,17.9375
102.0,-0.54931640625,0.244140625,-0.3662109375,0.28186895352031,0.3969847712637714,-0.8651387066255684,-3.625,-29.0,20.75
102.5,-0.244140625,-0.30517578125,-0.1220703125,0.282235175634022,0.3947874385814997,-0.8712424085207678,-5.9375,-27.125,17.5
103.0,0.30517578125,0.18310546875,0.9765625,0.2657551805169835,0.4011352885525071,-0.8751487777336955,-7.5,-30.125,21.0625
103.5,-0.732421875,0.1220703125,1.0986328125,0.2534257026886807,0.3895382549516281,-0.8722190008239997,-7.0625,-29.375,23.5
104.0,1.28173828125,-6.65283203125,11.71875,0.2349925229651784,0.3756218146305734,-0.8832056642353587,-6.3125,-31.5625,19.125
104.5,-0.48828125,0.54931640625,-1.03759765625,0.2732016968291268,0.3703726310007019,-0.8844264046143986,-5.5625,-30.125,18.3125
105.0,-1.28173828125,6.77490234375,-4.8828125,0.2404858546708578,0.3818475905636769,-0.8824732200079348,-5.1875,-29.0,16.3125
105.5,2.3193359375,0.42724609375,-5.79833984375,0.293588061159093,0.4149296548356578,-0.8562273018585772,-5.5625,-31.9375,17.5
106.0,0.06103515625,0.30517578125,0.91552734375,0.2701498458815271,0.4043092135380108,-0.8609881893368327,-11.625,-28.625,19.5625
106.5,-5.4931640625,6.591796875,-2.62451171875,0.2550126651814325,0.4039429914242988,-0.8611102633747367,-8.5625,-30.125,11.9375
107.0,0.18310546875,2.3193359375,-2.44140625,0.3232520523697623,0.4681539353617969,-0.8089846491897336,-6.3125,-32.3125,13.5625
107.5,-32.89794921875,5.7373046875,21.484375,0.282113101596118,0.4422742393261513,-0.8075197607348857,-6.3125,-31.5625,18.75
108.0,-13.24462890625,-13.36669921875,-25.57373046875,0.4115115817743461,0.4709616382335886,-0.8054445020905179,-6.6875,-29.75,15.5625
108.5,3.72314453125,-8.544921875,3.96728515625,0.3900265511032441,0.5465254676961577,-0.7741935483870968,-5.9375,-30.5,19.125
109.0,6.4697265625,-6.7138671875,-3.7841796875,0.2519608142338328,0.412610248115482,-0.8443861201818903,-4.0,-31.5625,17.5
109.5,0.54931640625,4.57763671875,5.2490234375,0.304086428418836,0.4358043153172399,-0.8511001922666097,-4.375,-28.25,19.125
110.0,-0.06103515625,0.0,-0.732421875,0.2807702871791742,0.4387340922269356,-0.8432874538407544,-4.375,-28.25,14.75
110.5,-0.06103515625,-0.18310546875,0.1220703125,0.2856532486953337,0.4316537980285043,-0.8447523422956023,-4.75,-31.5625,20.75
111.0,-0.18310546875,0.8544921875,0.67138671875,0.2910245063631092,0.4393444624164556,-0.8426770836512345,-4.75,-30.875,17.9375
111.5,-0.42724609375,0.18310546875,-0.42724609375,0.2960295419171728,0.4383678701132236,-0.8423108615375225,-5.1875,-29.0,19.5625
112.0,0.1220703125,-0.79345703125,-0.1220703125,0.2804040650654622,0.4337290566728721,-0.8429212317270425,-6.6875,-30.125,20.75
112.5,0.54931640625,0.1220703125,-0.30517578125,0.2865077669606616,0.4309213538010804,-0.8421887874996186,-6.6875,-28.625,18.3125
113.0,-0.06103515625,0.244140625,0.48828125,0.2880947294534135,0.4248176519058809,-0.8431653798028504,-5.1875,-27.5,17.9375
113.5,0.06103515625,-0.30517578125,-0.30517578125,0.2918790246284371,0.4303109836115604,-0.8438978240302744,-5.5625,-30.5,18.3125
114.0,-0.30517578125,-0.18310546875,-0.244140625,0.2921231727042451,0.4294564653462325,-0.8421887874996186,-6.3125,-29.375,17.5
114.5,0.244140625,-0.244140625,0.0,0.2944425794244209,0.4289681691946165,-0.8401135288552507,-7.5,-31.25,17.9375
115.0,0.1220703125,0.0,0.3662109375,0.2896816919461653,0.4257942442091128,-0.8440198980681783,-5.1875,-29.375,20.3125
115.5,0.0,-0.06103515625,0.18310546875,0.2960295419171728,0.4284798730430005,-0.8438978240302744,-4.75,-28.625,17.9375
116.0,-0.18310546875,0.18310546875,0.1220703125,0.2944425794244209,0.423841059602649,-0.8471938230536821,-6.6875,-31.5625,17.125
116.5,0.244140625,-0.18310546875,0.18310546875,0.2944425794244209,0.4265266884365367,-0.8463393047883542,-7.8125,-30.125,19.125
117.0,-0.1220703125,-0.1220703125,-0.06103515625,0.2976165044099246,0.4275032807397687,-0.8456068605609302,-11.625,-27.5,14.75
117.5,-0.18310546875,0.244140625,0.18310546875,0.2937101351969969,0.4256721701712088,-0.8458510086367382,-7.8125,-30.5,11.9375
118.0,-2.50244140625,6.4697265625,0.6103515625,0.2954191717276528,0.4095583971678823,-0.8517105624561296,-1.6875,-34.125,15.5625
118.5,-11.1083984375,0.244140625,10.19287109375,0.3140964995269631,0.3734244819483016,-0.8070314645832698,-10.5,-29.75,17.5
119.0,-13.916015625,-2.86865234375,-10.19287109375,0.402111880855739,0.4076052125614185,-0.7954344309823909,-7.5,-32.6875,17.5
119.5,-2.13623046875,-6.89697265625,-18.4326171875,0.2782067323831904,0.5807061983092746,-0.7448957792901395,-7.5,-32.3125,18.75
120.0,14.7705078125,13.48876953125,34.36279296875,0.3648792992950224,0.5645924253059481,-0.7544175542466506,-5.1875,-29.0,19.5625
120.5,-11.23046875,11.29150390625,-10.80322265625,0.3916135135959959,0.4901272621845149,-0.7447737052522355,-4.75,-31.9375,15.9375
121.0,8.544921875,-15.07568359375,-5.615234375,0.3656117435224463,0.4394665364543595,-0.8333994567705313,-2.0625,-33.0625,11.5625
121.5,5.67626953125,-6.103515625,-1.0986328125,0.2779625843073824,0.4437391277809991,-0.8435316019165624,-5.1875,-32.3125,17.125
122.0,-5.92041015625,10.1318359375,-9.09423828125,0.3012787255470442,0.4273812067018647,-0.8564714499343852,-6.6875,-30.875,17.125
122.5,-15.07568359375,-21.30126953125,-27.77099609375,0.3303323465681936,0.5534836878566851,-0.749656666768395,-5.5625,-27.875,19.9375
123.0,3.84521484375,3.0517578125,-0.8544921875,0.2010559404278695,0.5810724204229866,-0.7867671742912076,-3.25,-30.5,20.75
123.5,0.54931640625,5.55419921875,-3.47900390625,0.2944425794244209,0.456068605609302,-0.7877437665944396,-4.0,-31.25,19.5625
124.0,-4.8828125,2.8076171875,2.44140625,0.3536484878078554,0.4959868160039064,-0.7726065858943449,-4.0,-29.75,21.5
124.5,3.41796875,-2.25830078125,-1.220703125,0.2795495468001343,0.3994262520218512,-0.869899594103824,-5.1875,-28.625,21.5
125.0,0.8544921875,0.67138671875,0.67138671875,0.2710043641468551,0.4119998779259621,-0.8634296700949126,-2.5,-29.0,17.9375
125.5,0.48828125,-0.67138671875,-0.3662109375,0.2852870265816217,0.3955198828089236,-0.8581804864650411,-3.25,-30.5,17.125
126.0,0.06103515625,-1.28173828125,-0.732421875,0.2900479140598773,0.3984496597186193,-0.8613544114505447,-2.875,-29.75,18.3125
126.5,0.18310546875,-2.01416015625,-2.0751953125,0.2541581469161046,0.4038209173863948,-0.8646504104739524,-5.5625,-26.75,20.75
127.0,0.30517578125,-0.6103515625,-0.30517578125,0.2585528122806482,0.4079714346751305,-0.8669698171941282,-3.625,-30.125,21.0625
127.5,0.06103515625,0.1220703125,0.18310546875,0.2537919248023926,0.4030884731589709,-0.8667256691183203,-3.625,-28.625,19.5625
128.0,-0.18310546875,0.0,0.0,0.2553788872951445,0.4057741019928587,-0.868923001800592,-4.0,-30.125,20.75
128.5,0.54931640625,1.220703125,1.64794921875,0.2685628833887753,0.4008911404766991,-0.8769798883022553,-5.5625,-29.75,20.75
129.0,0.6103515625,-0.79345703125,-0.1220703125,0.2680745872371593,0.3962523270363475,-0.8641621143223365,-3.625,-30.125,18.75
129.5,-0.18310546875,-0.42724609375,-0.06103515625,0.2705160679952391,0.3978392895290994,-0.8691671498764,-2.875,-29.0,19.125
130.0,-0.30517578125,0.244140625,0.1220703125,0.2677083651234473,0.4032105471968749,-0.8674581133457442,-3.625,-30.5,18.75
130.5,-0.06103515625,0.30517578125,0.06103515625,0.2721030304879909,0.401745658742027,-0.8634296700949126,-4.75,-26.375,20.75
131.0,0.67138671875,-2.9296875,-1.3427734375,0.2719809564500869,0.3966185491500595,-0.8709982604449599,-5.1875,-29.75,21.5
131.5,0.06103515625,-0.30517578125,-0.3662109375,0.2583086642048402,0.401745658742027,-0.8717307046723838,-4.0,-29.375,19.5625
132.0,-0.18310546875,-0.06103515625,0.244140625,0.2620929593798639,0.4038209173863948,-0.8677022614215522,-4.0,-29.375,19.125
132.5,0.3662109375,1.5869140625,0.67138671875,0.2541581469161046,0.401745658742027,-0.8674581133457442,-5.9375,-28.625,18.3125
133.0,-0.18310546875,0.0,0.30517578125,0.2706381420331431,0.4000366222113712,-0.8742942594683676,-6.6875,-27.5,21.875
133.5,0.244140625,0.1220703125,0.244140625,0.2692953276161992,0.4004028443250831,-0.8679464094973601,-3.625,-30.125,16.6875
134.0,0.0,0.244140625,0.06103515625,0.2707602160710471,0.3986938077944273,-0.870143742179632,-5.1875,-27.875,19.9375
134.5,-0.06103515625,0.18310546875,0.06103515625,0.2727134006775109,0.3973509933774834,-0.8683126316110721,-4.0,-27.5,19.5625
135.0,0.1220703125,-0.18310546875,0.3662109375,0.2674642170476394,0.3983275856807153,-0.8703878902554399,-6.3125,-30.5,21.875
135.5,0.0,0.06103515625,0.06103515625,0.2719809564500869,0.3963744010742515,-0.8691671498764,-4.75,-29.0,19.125
136.0,-0.30517578125,-0.18310546875,0.06103515625,0.2721030304879909,0.401257362590411,-0.8648945585497604,-3.625,-29.0,21.0625
136.5,-0.48828125,0.06103515625,-0.1220703125,0.2699056978057191,0.4011352885525071,-0.8625751518295847,-5.1875,-30.5,22.6875
137.0,0.3662109375,-0.06103515625,0.1220703125,0.2601397747734,0.3986938077944273,-0.8646504104739524,-4.0,-29.75,22.3125
137.5,-0.06103515625,0.0,0.0,0.271126438184759,0.3956419568468276,-0.8650166325876644,-4.375,-28.625,19.125
138.0,-0.06103515625,-0.06103515625,-0.244140625,0.271614734336375,0.3979613635670034,-0.8668477431562243,-5.9375,-29.0,21.0625
138.5,0.18310546875,0.06103515625,-0.06103515625,0.2708822901089511,0.3978392895290994,-0.8667256691183203,-4.75,-26.75,20.75
139.0,-0.1220703125,0.06103515625,0.1220703125,0.2708822901089511,0.3997924741355632,-0.8667256691183203,-4.375,-30.125,17.9375
139.5,-0.18310546875,-0.244140625,-0.244140625,0.2721030304879909,0.3991821039460432,-0.8641621143223365,-2.875,-33.375,12.75
140.0,-0.48828125,0.244140625,0.30517578125,0.2739341410565508,0.3990600299081392,-0.8558610797448652,0.5,-30.125,11.9375
140.5,0.18310546875,0.30517578125,0.6103515625,0.2749107333597827,0.3974730674153874,-0.8656270027771844,-12.8125,-30.125,18.75
141.0,-9.21630859375,10.80322265625,-0.54931640625,0.2915128025147251,0.3953978087710196,-0.8739280373546556,-10.875,-30.125,13.1875
141.5,-13.97705078125,-8.544921875,-28.1982421875,0.2741782891323587,0.5627613147373882,-0.7772453993346965,-5.1875,-29.375,17.5
142.0,1.220703125,8.36181640625,19.47021484375,0.1939756462294381,0.65248573259682,-0.7490462965788751,-5.1875,-29.0,18.75
142.5,-5.67626953125,12.63427734375,13.73291015625,0.4226203192236091,0.4185918759727774,-0.7842036194952239,-4.375,-30.875,18.75
143.0,-11.41357421875,-2.13623046875,-18.49365234375,0.4311655018768883,0.4295785393841365,-0.7683339945677053,-5.9375,-28.625,16.75
143.5,24.84130859375,4.45556640625,25.08544921875,0.3007904293954283,0.3730582598345897,-0.8424329355754265,-5.1875,-31.5625,13.9375
144.0,0.30517578125,-9.521484375,2.38037109375,0.3216650898770104,0.4432508316293832,-0.8418225653859066,-4.375,-32.6875,15.1875
144.5,-2.01416015625,4.0283203125,-2.0751953125,0.3242286446729941,0.3968626972258675,-0.825342570268868,-2.5,-30.5,16.6875
145.0,-0.1220703125,0.3662109375,1.8310546875,0.336924344615009,0.4367809076204718,-0.8216803491317484,-1.6875,-28.625,16.3125
145.5,-11.1083984375,8.30078125,1.64794921875,0.325083162938322,0.4605853450117496,-0.8091067232276375,-15.8125,-27.125,18.75
146.0,-0.8544921875,-0.244140625,-0.67138671875,0.3891720328379162,0.5471358378856777,-0.7423322244941557,-10.875,-30.125,18.3125
146.5,12.8173828125,-22.216796875,2.62451171875,0.2097231971190527,0.4964751121555223,-0.8573259681997131,-5.9375,-28.625,16.6875
147.0,-2.8076171875,8.48388671875,1.40380859375,0.2102114932706686,0.401867732779931,-0.9035920285653248,-4.375,-28.625,19.5625
147.5,2.44140625,10.009765625,33.50830078125,0.4333628345591601,0.3895382549516281,-0.7942136906033509,-4.375,-29.375,19.125
148.0,3.7841796875,-24.71923828125,-24.169921875,0.4696188238166447,0.3543809320352794,-0.8062990203558458,-6.3125,-30.5,17.5
148.5,17.578125,2.5634765625,9.6435546875,0.3055513168736838,0.3773308511612293,-0.8938261055330058,-5.9375,-28.25,16.75
149.0,0.6103515625,0.244140625,0.244140625,0.2557451094088565,0.4041871395001068,-0.8595233008819849,-6.6875,-29.375,19.125
149.5,0.1220703125,-0.06103515625,-0.18310546875,0.2885830256050294,0.4076052125614185,-0.8557390057069613,-7.5,-30.125,17.5
150.0,-0.06103515625,0.18310546875,0.48828125,0.2847987304300058,0.4049195837275307,-0.8601336710715048,-7.5,-31.25,15.9375
150.5,-1.77001953125,0.244140625,3.90625,0.2871181371501816,0.4024781029694509,-0.8537858211004975,-5.9375,-31.5625,18.75
151.0,0.91552734375,-1.52587890625,0.0,0.3167821283608508,0.4057741019928587,-0.8426770836512345,-5.9375,-28.625,17.125
151.5,-0.6103515625,0.79345703125,1.220703125,0.2900479140598773,0.3966185491500595,-0.8679464094973601,-1.3125,-33.4375,14.75
152.0,-11.90185546875,18.85986328125,-2.62451171875,0.4013794366283151,0.4972075563829463,-0.7540513321329386,-0.9375,-32.3125,11.9375
152.5,15.2587890625,-27.52685546875,5.0048828125,0.2595294045838801,0.3958861049226356,-0.7954344309823909,-7.0625,-30.5,14.75
153.0,-3.23486328125,7.50732421875,1.15966796875,0.3178807947019867,0.4395886104922635,-0.8213141270180364,-12.8125,-29.75,16.6875
153.5,-5.67626953125,4.8828125,-27.28271484375,0.3545030060731834,0.532242805261391,-0.7732169560838649,-5.9375,-31.25,14.375
154.0,-4.69970703125,-3.5400390625,-5.06591796875,0.2125308999908444,0.6205023346659749,-0.7539292580950346,-5.9375,-33.4375,17.125
154.5,15.625,10.80322265625,36.07177734375,0.2739341410565508,0.5299233985412153,-0.7645496993926817,-6.3125,-32.3125,14.75
155.0,-6.7138671875,16.11328125,2.8076171875,0.5501876888332774,0.423718985564745,-0.7679677724539934,-5.9375,-32.3125,20.3125
155.5,1.15966796875,-14.34326171875,-27.9541015625,0.4373912778099917,0.4449598681600391,-0.7888424329355754,-4.75,-31.9375,18.75
156.0,-1.28173828125,7.32421875,1.15966796875,0.282967619861446,0.5307779168065432,-0.7771233252967925,-4.375,-29.75,13.1875
156.5,-5.9814453125,12.14599609375,-8.1787109375,0.4477675710318308,0.4914700766014588,-0.7124240852076784,-5.1875,-29.75,15.9375
157.0,6.65283203125,-11.5966796875,16.357421875,0.4702291940061647,0.445570238349559,-0.8204596087527085,-4.75,-31.9375,21.875
157.5,0.3662109375,-1.15966796875,-0.1220703125,0.2838221381267738,0.4692526017029328,-0.8246101260414441,-4.375,-29.375,17.125
158.0,0.30517578125,-0.3662109375,-0.9765625,0.3051850947599719,0.4585100863673818,-0.826197088534196,-5.9375,-30.125,17.9375
158.5,0.42724609375,-0.8544921875,-0.3662109375,0.3031098361156041,0.4574114200262459,-0.8323007904293954,-4.0,-29.75,19.9375
159.0,0.30517578125,-0.06103515625,0.1220703125,0.3007904293954283,0.4510635700552385,-0.8341319009979553,-4.75,-29.0,18.3125
159.5,-0.06103515625,-0.1220703125,-0.1220703125,0.2982268745994446,0.4486220892971587,-0.8308359019745476,-4.375,-30.875,18.75
160.0,0.244140625,-0.67138671875,-0.1220703125,0.2954191717276528,0.4517960142826624,-0.8314462721640675,-3.625,-29.0,16.6875
160.5,-0.1220703125,-0.06103515625,0.0,0.2954191717276528,0.4495986816003906,-0.8325449385052034,-4.0,-29.0,19.125
161.0,-0.1220703125,0.244140625,0.30517578125,0.2973723563341166,0.4532609027375103,-0.8301034577471236,-4.0,-26.75,15.9375
161.5,-0.06103515625,-0.1220703125,0.1220703125,0.2944425794244209,0.4499649037141026,-0.8337656788842432,-4.75,-30.875,16.3125
162.0,0.1220703125,-0.30517578125,0.1220703125,0.2916348765526291,0.4465468306527909,-0.8326670125431074,-3.625,-31.9375,17.125
162.5,-0.18310546875,0.06103515625,0.1220703125,0.2899258400219733,0.4525284585100864,-0.8287606433301797,-4.75,-30.875,17.125
163.0,0.06103515625,-0.18310546875,0.06103515625,0.2940763573107089,0.4470351268044069,-0.8348643452253792,-5.1875,-31.25,21.875
163.5,0.1220703125,-0.30517578125,-0.3662109375,0.2923673207800531,0.4476454969939268,-0.8359630115665151,-4.75,-29.375,19.125
164.0,0.0,0.0,0.0,0.2915128025147251,0.4498428296761986,-0.8330332346568193,-4.75,-28.25,18.3125
164.5,-0.1220703125,0.0,-0.244140625,0.2918790246284371,0.4491103854487747,-0.8308359019745476,-4.375,-29.375,17.125
165.0,-0.06103515625,0.1220703125,0.18310546875,0.2912686544389172,0.4483779412213508,-0.8353526413769952,-4.0,-29.375,18.75
165.5,0.30517578125,-0.54931640625,0.06103515625,0.2884609515671255,0.4432508316293832,-0.8377941221350749,-5.1875,-31.5625,17.9375
166.0,0.244140625,-0.1220703125,0.18310546875,0.2880947294534135,0.4475234229560228,-0.8354747154148991,-11.625,-30.5,16.6875
166.5,-0.06103515625,-0.6103515625,-0.42724609375,0.292855616931669,0.4478896450697348,-0.8354747154148991,-3.25,-34.125,13.9375
167.0,-0.244140625,0.06103515625,-0.244140625,0.2916348765526291,0.4472792748802148,-0.8333994567705313,-6.3125,-32.6875,14.375
167.5,0.0,0.18310546875,0.244140625,0.2907803582873012,0.4463026825769829,-0.8348643452253792,-6.6875,-29.75,15.5625
168.0,3.96728515625,-15.44189453125,18.12744140625,0.4112674336985382,0.3707388531144139,-0.8385265663624989,-4.375,-31.5625,17.125
168.5,-18.98193359375,3.2958984375,-16.54052734375,0.4004028443250831,0.4902493362224189,-0.7524643696401868,-7.5,-29.375,15.1875
169.0,1.5869140625,-13.18359375,-9.3994140625,0.2841883602404859,0.6373485518967253,-0.7345194860683004,-7.5,-30.5,17.125
169.5,6.591796875,-10.498046875,5.615234375,0.4077272865993225,0.5268715475936155,-0.7345194860683004,-6.6875,-30.875,17.5
170.0,3.72314453125,-5.4931640625,1.220703125,0.380748924222541,0.4760887478255562,-0.7870113223670155,-7.8125,-29.75,14.75
170.5,-1.40380859375,4.33349609375,-5.0048828125,0.3669545579393902,0.467055269020661,-0.7918942838831752,-8.5625,-30.875,18.75
171.0,10.19287109375,-14.6484375,4.0283203125,0.3641468550675985,0.499893185216834,-0.7809076204718162,-5.9375,-31.5625,17.125
171.5,-0.48828125,2.62451171875,1.46484375,0.3402203436384167,0.4630268257698294,-0.80458998382519,-5.5625,-29.75,19.125
172.0,0.3662109375,0.30517578125,-0.8544921875,0.3310647907956175,0.4570451979125339,-0.8138676107058931,-5.5625,-29.0,17.9375
172.5,-0.06103515625,-0.06103515625,0.732421875,0.3309427167577135,0.4542374950407422,-0.8092287972655415,-5.9375,-31.5625,18.75
173.0,-0.1220703125,-0.18310546875,-0.1220703125,0.3302102725302896,0.4582659382915738,-0.8180181279946287,-5.5625,-31.25,14.375
173.5,2.0751953125,-11.04736328125,6.4697265625,0.3494979705191198,0.4713278603473006,-0.80458998382519,-8.1875,-29.0,18.3125
174.0,-0.30517578125,-0.48828125,0.3662109375,0.3126316110721152,0.4419080172124393,-0.8244880520035401,-5.9375,-29.0,16.6875
174.5,0.42724609375,-0.3662109375,0.54931640625,0.3162938322092349,0.4257942442091128,-0.8393810846278268,-5.5625,-29.0,21.875
175.0,0.18310546875,-0.67138671875,-0.3662109375,0.3108005005035554,0.4287240211188086,-0.8388927884762108,-7.0625,-30.875,19.125
175.5,-0.1220703125,0.0,0.06103515625,0.3106784264656514,0.4284798730430005,-0.8404797509689627,-6.6875,-29.0,19.125
176.0,-0.18310546875,0.06103515625,0.18310546875,0.3098239082003235,0.4256721701712088,-0.8376720480971709,-5.5625,-30.125,19.125
176.5,0.0,-0.244140625,0.0,0.3072603534043397,0.4259163182470168,-0.8379161961729789,-7.5,-29.0,18.3125
177.0,0.244140625,-0.6103515625,-0.06103515625,0.3116550187688833,0.4320200201422162,-0.8333994567705313,-6.6875,-30.125,19.5625
177.5,0.1220703125,-0.1220703125,0.06103515625,0.3092135380108035,0.4290902432325205,-0.8377941221350749,-8.1875,-30.875,19.5625
178.0,0.18310546875,-0.06103515625,0.06103515625,0.3057954649494919,0.4292123172704245,-0.8371837519455549,-4.75,-30.125,20.75
178.5,-0.18310546875,0.1220703125,0.0,0.3131199072237312,0.4264046143986327,-0.8354747154148991,-5.9375,-29.375,18.75
179.0,0.1220703125,-0.1220703125,-0.06103515625,0.3095797601245155,0.4307992797631764,-0.8412121951963866,-6.6875,-29.0,16.3125
179.5,-0.06103515625,0.1220703125,0.06103515625,0.3138523514511551,0.4267708365123447,-0.8377941221350749,-6.3125,-27.5,18.3125
180.0,-0.244140625,0.0,-0.244140625,0.3087252418591876,0.4283577990050966,-0.836695455793939,-7.5,-28.625,16.3125
180.5,0.30517578125,-0.244140625,-0.06103515625,0.3060396130252998,0.4279915768913846,-0.8435316019165624,-3.625,-28.625,18.75
181.0,0.18310546875,-0.1220703125,0.06103515625,0.304452650532548,0.4284798730430005,-0.8393810846278268,-5.9375,-30.5,17.125
181.5,0.1220703125,-0.3662109375,-0.1220703125,0.3055513168736838,0.4244514297921689,-0.8382824182866909,-5.1875,-30.875,18.75
182.0,0.244140625,-0.18310546875,-0.06103515625,0.3006683553575243,0.4260383922849208,-0.8425550096133305,-6.6875,-31.5625,17.5
182.5,0.1220703125,0.732421875,0.244140625,0.3053071687978759,0.4265266884365367,-0.8413342692342906,-6.6875,-31.5625,18.75
183.0,-0.1220703125,-0.18310546875,-0.06103515625,0.3097018341624195,0.4257942442091128,-0.8391369365520188,-4.75,-31.9375,20.75
183.5,-0.06103515625,0.244140625,0.1220703125,0.3123874629963072,0.434339426862392,-0.8358409375286111,-7.0625,-28.25,19.9375
184.0,0.30517578125,-0.1220703125,-0.06103515625,0.3076265755180517,0.4286019470809045,-0.838038270210883,-6.6875,-29.75,17.9375
184.5,0.06103515625,0.0,0.18310546875,0.3065279091769158,0.4255500961333048,-0.8385265663624989,-7.5,-31.9375,19.9375
185.0,-0.06103515625,-0.1220703125,-0.06103515625,0.3087252418591876,0.4250617999816889,-0.8342539750358593,-5.1875,-30.5,15.1875
185.5,-0.18310546875,0.18310546875,0.06103515625,0.3050630207220679,0.4265266884365367,-0.8386486404004029,-6.6875,-31.5625,15.9375
186.0,0.06103515625,-0.244140625,0.0,0.3099459822382275,0.4271370586260567,-0.8381603442487869,-8.5625,-30.125,15.5625
186.5,-0.18310546875,0.0,-0.18310546875,0.3099459822382275,0.4279915768913846,-0.8390148625141148,-7.5,-30.125,15.5625
187.0,-0.30517578125,0.1220703125,-0.30517578125,0.3118991668446913,0.4289681691946165,-0.8403576769310587,-7.8125,-31.25,21.0625
187.5,0.244140625,-0.1220703125,-0.18310546875,0.3081148716696676,0.4295785393841365,-0.837061677907651,-5.9375,-29.75,18.75
188.0,-1.3427734375,1.5869140625,0.91552734375,0.3120212408825953,0.4251838740195929,-0.8427991576891385,-5.9375,-30.5,15.5625
188.5,0.42724609375,-0.244140625,1.64794921875,0.3317972350230415,0.4498428296761986,-0.815088351084933,-8.9375,-30.875,19.125
189.0,0.3662109375,-0.9765625,-0.1220703125,0.3175145725882748,0.4316537980285043,-0.8324228644672994,-7.8125,-30.5,19.5625
189.5,-0.48828125,0.732421875,0.244140625,0.3210547196874904,0.4270149845881527,-0.8332773827326273,-6.3125,-30.5,16.6875
190.0,-0.54931640625,0.3662109375,-0.1220703125,0.3165379802850429,0.4290902432325205,-0.8333994567705313,-6.6875,-30.125,17.9375
190.5,0.732421875,-1.52587890625,-0.6103515625,0.3177587206640828,0.4305551316873683,-0.8321787163914914,-7.5,-28.625,18.75
191.0,-0.18310546875,0.1220703125,0.3662109375,0.3114108706930753,0.4275032807397687,-0.8331553086947233,-4.75,-31.25,12.75
191.5,0.1220703125,-0.48828125,-0.1220703125,0.3216650898770104,0.4293343913083285,-0.8338877529221472,-2.5,-33.4375,17.125
192.0,0.1220703125,-0.18310546875,-0.30517578125,0.3204443494979705,0.4276253547776726,-0.8354747154148991,-13.1875,-31.25,17.5
192.5,-0.06103515625,-0.244140625,0.0,0.3158055360576189,0.4288460951567125,-0.836451307718131,-8.9375,-31.25,15.1875
193.0,-0.6103515625,1.28173828125,0.48828125,0.3186132389294107,0.4314096499526963,-0.8315683462019715,-2.0625,-31.9375,12.75
193.5,-3.47900390625,1.3427734375,-5.37109375,0.2622150334177678,0.3778191473128452,-0.8462172307504502,-6.3125,-31.25,15.5625
194.0,-7.8125,-3.173828125,0.1220703125,0.1976378673665578,0.56434827723014,-0.7965330973235267,-7.0625,-30.875,15.1875
194.5,34.7900390625,25.93994140625,19.4091796875,0.2021546067690054,0.3524277474288155,-0.936552018799402,-5.5625,-33.0625,15.5625
195.0,0.91552734375,-1.46484375,-0.244140625,0.4693746757408368,0.413220618305002,-0.7694326609088412,-7.8125,-31.25,15.5625
195.5,-5.67626953125,-9.46044921875,-35.46142578125,0.369273964659566,0.5172276985992004,-0.7452620014038515,-7.5,-29.0,15.1875
196.0,9.765625,2.8076171875,5.06591796875,0.2546464430677205,0.5261391033661916,-0.7997070223090305,-6.3125,-31.5625,17.9375
196.5,0.18310546875,6.89697265625,6.65283203125,0.3272804956205939,0.4804834131900998,-0.7918942838831752,-5.5625,-31.5625,18.3125
197.0,0.0,-2.25830078125,-0.8544921875,0.3521835993530076,0.5150303659169286,-0.7636951811273538,-7.0625,-31.25,18.3125
197.5,0.06103515625,0.18310546875,-1.220703125,0.3513290810876797,0.4810937833796197,-0.7901852473525193,-8.1875,-31.25,18.3125
198.0,-1.708984375,-1.0986328125,-0.54931640625,0.3186132389294107,0.4869533371990112,-0.7889645069734794,-7.5,-31.9375,15.5625
198.5,5.615234375,-3.41796875,-0.42724609375,0.3552354503006073,0.4746238593707083,-0.7859126560258797,-6.3125,-31.25,13.9375
199.0,-0.67138671875,2.685546875,-0.91552734375,0.3173924985503707,0.4662007507553331,-0.8084963530381176,-10.125,-29.0,19.9375
199.5,0.0,-0.18310546875,-0.3662109375,0.3396099734488967,0.4591204565569017,-0.80458998382519,-1.6875,-31.5625,12.375
200.0,-2.50244140625,-1.89208984375,0.8544921875,0.325693533127842,0.4587542344431898,-0.7895748771629993,0.875,-34.5,10.0
200.5,0.30517578125,0.1220703125,0.3662109375,0.3491317484054079,0.47804193243202,-0.7927488021485031,-8.9375,-31.25,13.5625
201.0,0.1220703125,-0.42724609375,0.244140625,0.3518173772392956,0.4703512680440687,-0.8053224280526139,-10.875,-29.375,17.125
201.5,26.06201171875,-0.244140625,35.58349609375,0.369273964659566,0.4083376567888424,-0.8070314645832698,-6.3125,-31.5625,17.5
202.0,-25.08544921875,1.28173828125,-27.4658203125,0.4445936460463271,0.4336069826349681,-0.782616657002472,-10.125,-27.875,19.5625
202.5,-9.6435546875,-15.68603515625,-32.28759765625,0.1599169896542253,0.6156193731498154,-0.7260963774529252,-8.9375,-29.75,14.375
203.0,16.7236328125,12.63427734375,30.57861328125,0.2100894192327646,0.6024353770561846,-0.7491683706167791,-7.0625,-30.125,15.5625
203.5,5.31005859375,7.2021484375,10.8642578125,0.4439832758568071,0.3421735282448805,-0.8092287972655415,-6.3125,-33.0625,16.75
204.0,20.6298828125,-25.7568359375,-7.75146484375,0.434095278786584,0.3083590197454756,-0.859279152806177,-5.1875,-30.875,14.375
204.5,3.173828125,8.4228515625,1.89208984375,0.2380443739127781,0.4544816431165502,-0.8241218298898282,-6.3125,-28.625,16.3125
205.0,-10.31494140625,16.41845703125,26.91650390625,0.4898831141087069,0.3449812311166723,-0.7783440656758324,-5.9375,-30.5,17.9375
205.5,-1.5869140625,5.4931640625,-42.54150390625,0.3769646290475173,0.4922025208288827,-0.7448957792901395,-4.75,-30.5,17.9375
206.0,2.13623046875,-1.220703125,-10.07080078125,0.4001586962492752,0.4621723075045015,-0.7962889492477188,-7.5,-31.5625,17.5
206.5,-0.3662109375,-1.5869140625,-0.42724609375,0.3608508560441908,0.4892727439191869,-0.782006286812952,-5.5625,-32.3125,17.5
207.0,1.77001953125,-1.3427734375,-0.732421875,0.3597521897030549,0.477797784356212,-0.7884762108218635,-4.375,-30.875,17.9375
207.5,0.67138671875,-2.01416015625,-0.6103515625,0.336924344615009,0.4799951170384838,-0.7949461348307749,-3.625,-28.25,18.75
208.0,3.90625,-15.2587890625,11.90185546875,0.315195165868099,0.4676656392101809,-0.804712057863094,-4.0,-29.75,17.125
208.5,-0.8544921875,0.54931640625,0.42724609375,0.2922452467421491,0.4393444624164556,-0.8427991576891385,-2.5,-30.5,20.75
209.0,-8.60595703125,4.08935546875,1.03759765625,0.3010345774712363,0.4907376323740348,-0.7743156224250007,-2.875,-31.5625,17.125
209.5,6.28662109375,2.13623046875,-4.57763671875,0.3813592944120609,0.4658345286416211,-0.8139896847437971,-3.625,-31.9375,15.9375
210.0,4.82177734375,1.8310546875,-11.65771484375,0.3354594561601611,0.4907376323740348,-0.7938474684896389,-3.625,-31.9375,16.3125
210.5,1.40380859375,0.18310546875,1.52587890625,0.3534043397320475,0.4692526017029328,-0.8078859828485977,-3.625,-31.5625,19.5625
211.0,-0.6103515625,-0.48828125,1.220703125,0.3379009369182409,0.4516739402447584,-0.8038575395977661,-4.0,-30.125,19.9375
211.5,3.11279296875,-3.2958984375,-2.197265625,0.3426618243964964,0.4809717093417157,-0.804467909787286,-3.25,-29.375,17.5
212.0,-0.67138671875,-0.1220703125,2.685546875,0.3618274483474227,0.4843897824030274,-0.7890865810113834,-3.25,-28.625,16.3125
212.5,-3.662109375,2.5634765625,5.0048828125,0.3414410840174566,0.4919583727530747,-0.7896969512009033,-2.0625,-29.0,17.125
213.0,-2.38037109375,-1.220703125,1.0986328125,0.3596301156651509,0.4718161564989166,-0.7844477675710319,-6.6875,-29.75,18.3125
213.5,0.9765625,-2.25830078125,-2.13623046875,0.3515732291634876,0.4879299295022431,-0.7811517685476241,-4.75,-30.875,19.9375
214.0,-0.42724609375,-0.9765625,2.44140625,0.3497421185949278,0.4797509689626759,-0.7887203588976714,-3.625,-30.5,18.75
214.5,-0.48828125,0.0,0.0,0.357799005096591,0.467421491134373,-0.80458998382519,-2.875,-30.125,21.0625
215.0,-0.91552734375,3.173828125,0.06103515625,0.3686635944700461,0.4906155583361308,-0.7834711752678,-4.75,-31.25,21.0625
215.5,-0.67138671875,0.6103515625,-1.5869140625,0.3640247810296945,0.4742576372569964,-0.7860347300637837,-4.0,-30.5,16.75
216.0,-0.732421875,0.6103515625,0.30517578125,0.3750114444410535,0.4655903805658131,-0.7867671742912076,-3.625,-31.5625,18.3125
216.5,-0.06103515625,0.244140625,-0.48828125,0.3607287820062868,0.4873195593127232,-0.7805413983581042,-3.25,-31.25,18.75
217.0,0.79345703125,-0.18310546875,-2.44140625,0.3722037415692618,0.5042878505813776,-0.7687002166814173,-4.0,-29.75,13.1875
217.5,0.3662109375,0.91552734375,1.89208984375,0.3661000396740623,0.4746238593707083,-0.7907956175420392,-2.5,-32.3125,17.9375
218.0,-1.28173828125,1.0986328125,0.06103515625,0.3712271492660298,0.4978179265724662,-0.7813959166234321,-2.875,-31.25,18.75
218.5,3.5400390625,-2.62451171875,0.79345703125,0.3635364848780785,0.4729148228400525,-0.7967772453993347,-4.375,-31.25,16.6875
219.0,-2.38037109375,2.44140625,-3.23486328125,0.3869747001556444,0.4852443006683553,-0.7851802117984558,-4.375,-30.125,18.3125
219.5,0.91552734375,-0.79345703125,0.244140625,0.3729361857966857,0.4836573381756035,-0.7773674733726005,-3.625,-31.5625,17.5
220.0,0.3662109375,2.3193359375,-2.0751953125,0.3617053743095187,0.4859767448957793,-0.7890865810113834,-3.625,-30.125,16.3125
220.5,2.5634765625,-3.5400390625,-1.64794921875,0.3380230109561449,0.4821924497207556,-0.7976317636646626,-3.625,-29.375,20.3125
221.0,-1.15966796875,-1.28173828125,0.732421875,0.3697622608111819,0.4918362987151707,-0.7906735435041352,-2.0625,-31.5625,18.3125
221.5,-0.1220703125,0.1220703125,0.244140625,0.3548692281868953,0.4913480025635548,-0.782128360850856,-10.875,-28.625,15.5625
222.0,0.48828125,-0.48828125,0.06103515625,0.3662221137119663,0.4837794122135075,-0.7887203588976714,-3.625,-32.3125,13.1875
222.5,-1.52587890625,0.79345703125,0.48828125,0.3526718955046236,0.478408154545732,-0.7872554704428236,-3.25,-31.25,18.3125
223.0,1.0986328125,-3.84521484375,0.3662109375,0.3181249427777947,0.4786523026215399,-0.7894528031250954,-3.25,-29.375,19.125
223.5,-0.67138671875,-0.8544921875,-0.6103515625,0.3553575243385113,0.5008697775200659,-0.771996215704825,-4.0,-31.9375,19.9375
224.0,-5.67626953125,9.521484375,7.9345703125,0.3921018097476119,0.4791405987731559,-0.7644276253547777,-3.25,-29.75,17.5
224.5,26.2451171875,26.67236328125,55.23681640625,0.1723685415204321,0.4066286202581866,-0.7734611041596728,-3.25,-28.625,18.75
225.0,-9.94873046875,-19.8974609375,-42.6025390625,0.412976470229194,0.4575334940641499,-0.7514877773369548,-0.5625,-29.375,19.5625
225.5,27.4658203125,33.14208984375,6.34765625,0.3612170781579027,0.5261391033661916,-0.7968993194372387,-2.5,-28.25,19.9375
226.0,-0.3662109375,2.62451171875,1.708984375,0.347300637836848,0.489028595843379,-0.7842036194952239,-2.5,-27.875,20.3125
226.5,1.77001953125,0.18310546875,-0.8544921875,0.3404644917142246,0.4685201574755089,-0.8028809472945342,-2.5,-29.375,19.9375
227.0,-0.18310546875,0.54931640625,-0.732421875,0.3266701254310739,0.4729148228400525,-0.8008056886501663,-2.0625,-29.0,18.3125
227.5,0.54931640625,3.84521484375,-3.5400390625,0.3596301156651509,0.4660786767174291,-0.8053224280526139,-2.0625,-29.0,20.3125
228.0,-0.30517578125,-2.0751953125,-0.91552734375,0.3441267128513443,0.4843897824030274,-0.7928708761864071,-3.25,-29.0,21.5
228.5,2.44140625,0.244140625,-1.15966796875,0.3459578234199041,0.4707174901577807,-0.8106936857203895,-2.0625,-29.0,19.5625
229.0,-1.220703125,2.13623046875,2.01416015625,0.3674428540910062,0.477919858394116,-0.7951902829065829,-0.5625,-31.9375,17.9375
229.5,2.0751953125,-0.06103515625,-2.197265625,0.3225196081423383,0.4765770439771721,-0.80458998382519,-2.875,-29.375,17.5
230.0,0.48828125,2.685546875,1.220703125,0.3295999023407697,0.4648579363383892,-0.804834131900998,-2.5,-29.375,15.9375
230.5,1.03759765625,-2.50244140625,-0.6103515625,0.3204443494979705,0.4846339304788354,-0.7861568041016876,-2.5,-31.9375,15.5625
231.0,-0.3662109375,-1.220703125,0.67138671875,0.3391216772972808,0.4747459334086123,-0.7998290963469344,-3.25,-30.5,18.75
231.5,-4.82177734375,-10.009765625,-7.87353515625,0.3121433149204993,0.4874416333506272,-0.814355906857509,-4.0,-32.3125,17.5
232.0,-0.48828125,-1.03759765625,-2.9296875,0.3105563524277474,0.4874416333506272,-0.8058107242042298,-3.25,-30.125,18.3125
232.5,0.79345703125,-0.6103515625,0.6103515625,0.3205664235358745,0.4845118564409314,-0.8114261299478134,-4.0,-31.25,19.5625
233.0,-0.48828125,0.79345703125,0.3662109375,0.3357036042359691,0.5081942197943052,-0.7798089541306803,-3.25,-30.5,17.9375
233.5,0.42724609375,-0.42724609375,-0.18310546875,0.3216650898770104,0.4832911160618915,-0.8037354655598621,-1.6875,-31.5625,17.9375
234.0,0.06103515625,0.0,0.3662109375,0.3253273110141301,0.4818262276070437,-0.8059327982421338,-3.625,-30.875,19.9375
234.5,0.42724609375,-0.30517578125,-0.3662109375,0.3194677571947386,0.4825586718344676,-0.8062990203558458,-4.375,-29.75,17.5
235.0,-0.1220703125,0.0,0.06103515625,0.3208105716116824,0.4829248939481795,-0.8093508713034455,0.125,-31.9375,13.9375
235.5,0.54931640625,-0.6103515625,-0.3662109375,0.3165379802850429,0.4769432660908841,-0.8091067232276375,3.9375,-31.9375,13.9375
236.0,0.30517578125,-0.30517578125,0.18310546875,0.315195165868099,0.4758445997497482,-0.8124027222510453,-8.5625,-29.0,16.3125
236.5,-0.18310546875,0.18310546875,0.0,0.3183690908536027,0.4732810449537644,-0.8097170934171575,-12.4375,-29.75,14.375
237.0,0.0,-0.06103515625,-0.1220703125,0.3138523514511551,0.4727927488021485,-0.8075197607348857,-2.875,-31.25,19.125
237.5,0.48828125,-0.79345703125,-1.5869140625,0.3231299783318582,0.4812158574175237,-0.8169194616534928,-4.0,-31.5625,14.0
238.0,-5.859375,5.18798828125,2.38037109375,0.325815607165746,0.4600970488601337,-0.7884762108218635,-12.0,-29.75,16.6875
238.5,-2.197265625,-6.16455078125,-31.18896484375,0.282723471785638,0.6040223395489365,-0.7945799127170629,2.0,-33.75,15.1875
239.0,3.47900390625,12.939453125,16.357421875,0.1794488357188635,0.6394238105410932,-0.7447737052522355,1.625,-33.4375,18.3125
239.5,-12.5732421875,-11.23046875,34.5458984375,0.4224982451857051,0.3311868648335215,-0.8652607806634725,-5.1875,-29.0,22.3125
240.0,14.16015625,-10.498046875,-18.73779296875,0.4642475661488693,0.3234962004455702,-0.80397961363567,-8.1875,-29.0,16.3125
240.5,1.15966796875,1.52587890625,-7.99560546875,0.3618274483474227,0.41346476638081,-0.93496505630665,-7.5,-31.25,14.375
241.0,17.08984375,14.6484375,35.82763671875,0.2401196325571459,0.456678975798822,-0.73879207739494,-3.25,-29.375,16.75
241.5,-21.05712890625,-13.427734375,-31.73828125,0.4412976470229194,0.4409314249092074,-0.7950682088686789,0.5,-30.125,17.5
242.0,-6.28662109375,-0.67138671875,-21.91162109375,0.2009338663899655,0.543351542710654,-0.7221900082399976,-0.25,-30.875,19.5625
242.5,5.79833984375,5.67626953125,21.54541015625,0.2185125278481399,0.597796563615833,-0.7495345927304911,-3.25,-28.625,22.6875
243.0,14.83154296875,-8.36181640625,17.88330078125,0.2410962248603778,0.2576982940153203,-0.8972441785943175,-2.0625,-29.0,20.75
243.5,-37.17041015625,11.5966796875,-14.404296875,0.4389782403027436,0.4615619373149815,-0.7689443647572253,-5.9375,-27.5,20.3125
244.0,-0.6103515625,-17.15087890625,9.09423828125,0.6048768578142644,0.4792626728110599,-0.7546617023224585,-4.0,-28.625,21.0625
244.5,-5.18798828125,-28.6865234375,-18.73779296875,0.3490096743675039,0.3328959013641773,-0.9442426831873532,-3.625,-29.375,18.3125
245.0,2.01416015625,3.11279296875,-3.2958984375,0.1929990539262062,0.4964751121555223,-0.8291268654438917,-3.625,-30.125,21.0625
245.5,6.89697265625,-6.7138671875,13.427734375,0.1922666096987823,0.4924466689046907,-0.8293710135196997,-4.75,-29.75,18.75
246.0,-1.52587890625,3.11279296875,2.44140625,0.2568437757499924,0.3956419568468276,-0.8851588488418226,-5.1875,-27.5,20.75
246.5,-0.91552734375,2.197265625,-0.06103515625,0.2888271736808374,0.4289681691946165,-0.8518326364940336,-3.25,-29.0,18.3125
247.0,-0.54931640625,3.96728515625,1.220703125,0.2989593188268685,0.4080935087130344,-0.858546708578753,-4.75,-29.0,22.3125
247.5,-0.18310546875,0.1220703125,-0.244140625,0.3057954649494919,0.4063844721823786,-0.8471938230536821,-3.625,-29.75,19.9375
248.0,0.18310546875,0.1220703125,-0.06103515625,0.3083590197454756,0.3979613635670034,-0.8496353038117619,-2.875,-30.875,17.9375
248.5,0.244140625,0.18310546875,0.244140625,0.3053071687978759,0.4024781029694509,-0.8515884884182257,-2.5,-28.25,19.5625
249.0,0.0,0.0,0.0,0.3050630207220679,0.3990600299081392,-0.8535416730246894,-5.9375,-29.75,20.3125
249.5,-0.06103515625,-0.1220703125,0.244140625,0.3033539841914121,0.3997924741355632,-0.8524430066835536,-4.375,-28.625,18.3125
250.0,0.06103515625,-0.30517578125,-0.30517578125,0.2996917630542924,0.3917355876339,-0.8570818201239051,-4.375,-28.625,19.9375
250.5,0.06103515625,-0.18310546875,-0.42724609375,0.2945646534623249,0.402356028931547,-0.8542741172521134,-3.625,-26.4375,20.3125
251.0,0.1220703125,0.0,0.30517578125,0.2926114688558611,0.3983275856807153,-0.8558610797448652,-4.0,-28.25,18.3125
251.5,-0.18310546875,0.06103515625,0.18310546875,0.293465987121189,0.4007690664387951,-0.8546403393658254,-4.0,-29.375,20.3125
252.0,-0.18310546875,0.06103515625,-0.06103515625,0.2945646534623249,0.4036988433484909,-0.8528092287972655,-5.5625,-29.375,19.5625
252.5,0.30517578125,-0.79345703125,0.732421875,0.2865077669606616,0.4065065462202826,-0.8575701162755212,-3.25,-28.625,19.5625
253.0,0.8544921875,-0.8544921875,0.30517578125,0.2971282082583086,0.3928342539750358,-0.8540299691763055,-2.0625,-29.0,20.3125
253.5,0.3662109375,0.0,-0.3662109375,0.2896816919461653,0.3922238837855159,-0.8644062623981444,-4.375,-29.75,20.75
254.0,-0.18310546875,0.18310546875,-0.732421875,0.2807702871791742,0.3847773674733726,-0.8664815210425123,-4.75,-28.625,19.5625
254.5,-0.1220703125,-0.06103515625,0.18310546875,0.2845545823541978,0.391247291482284,-0.8668477431562243,-3.625,-29.375,18.75
255.0,0.0,-0.06103515625,-0.18310546875,0.2802819910275582,0.3973509933774834,-0.8647724845118564,-2.5,-28.25,25.5
255.5,-0.06103515625,-0.1220703125,-0.1220703125,0.282967619861446,0.3951536606952116,-0.8623310037537767,-2.875,-30.5,17.125
256.0,-0.3662109375,0.54931640625,0.06103515625,0.2782067323831904,0.3914914395580919,-0.8641621143223365,-3.25,-26.4375,20.75
256.5,1.15966796875,-2.0751953125,0.8544921875,0.2922452467421491,0.4057741019928587,-0.8580584124271371,-2.0625,-29.75,19.5625
257.0,-0.54931640625,0.3662109375,0.06103515625,0.2786950285348064,0.3966185491500595,-0.8620868556779687,-3.25,-29.375,18.3125
257.5,0.18310546875,0.06103515625,0.1220703125,0.282113101596118,0.3960081789605396,-0.8604998931852168,-3.25,-29.75,19.9375
258.0,0.30517578125,-0.06103515625,0.1220703125,0.282601397747734,0.3925901058992279,-0.8647724845118564,-3.625,-27.875,20.75
258.5,0.06103515625,-0.1220703125,0.06103515625,0.2850428785058138,0.3891720328379162,-0.8645283364360484,-4.0,-30.125,19.9375
259.0,0.3662109375,-1.03759765625,-0.48828125,0.2804040650654622,0.3918576616718039,-0.8661152989288003,-3.625,-27.5,19.5625
259.5,-0.1220703125,-0.30517578125,0.30517578125,0.2845545823541978,0.3918576616718039,-0.8628192999053926,-2.5,-28.25,22.6875
260.0,2.38037109375,3.60107421875,-2.01416015625,0.2401196325571459,0.4107791375469222,-0.8575701162755212,-1.6875,-29.75,20.75
260.5,0.79345703125,0.54931640625,-2.44140625,0.282723471785638,0.4139530625324259,-0.8659932248908964,-2.875,-29.375,20.75
261.0,-1.46484375,2.197265625,1.15966796875,0.2966399121066927,0.423474837488937,-0.8498794518875699,-2.5,-29.0,19.9375
261.5,-2.3193359375,0.91552734375,8.23974609375,0.2963957640308847,0.4027222510452589,-0.858668782616657,-4.375,-30.125,21.0625
262.0,-0.244140625,-2.38037109375,5.92041015625,0.282235175634022,0.4047975096896267,-0.8434095278786584,-2.0625,-28.625,20.75
262.5,0.3662109375,0.06103515625,-0.732421875,0.28186895352031,0.4109012115848262,-0.8614764854884488,-3.625,-29.375,21.875
263.0,0.8544921875,-1.0986328125,3.41796875,0.304452650532548,0.4002807702871792,-0.8596453749198889,-2.0625,-26.75,19.125
263.5,-2.25830078125,0.244140625,-0.06103515625,0.2762535477767265,0.4074831385235145,-0.8604998931852168,-4.0,-27.125,22.3125
264.0,-0.48828125,0.18310546875,-0.244140625,0.2784508804589984,0.4061403241065706,-0.8597674489577929,-1.3125,-28.625,17.9375
264.5,-0.732421875,0.1220703125,-0.3662109375,0.2799157689138462,0.4052858058412427,-0.8607440412610248,-2.0625,-29.0,22.6875
265.0,0.3662109375,-0.3662109375,0.0,0.2740562150944547,0.4040650654622028,-0.8580584124271371,-2.5,-29.75,21.875
265.5,0.244140625,-0.30517578125,-0.18310546875,0.2755211035493026,0.4043092135380108,-0.8597674489577929,-5.1875,-31.25,18.3125
266.0,0.06103515625,-0.1220703125,-0.18310546875,0.2772301400799585,0.4055299539170507,-0.8595233008819849,0.875,-30.5,11.5625
266.5,-0.1220703125,0.06103515625,-0.06103515625,0.271370586260567,0.4004028443250831,-0.8642841883602405,-9.3125,-29.0,17.125
267.0,-0.42724609375,0.18310546875,-0.6103515625,0.2780846583452864,0.4100466933194983,-0.8658711508529924,-10.125,-31.5625,13.1875
267.5,-0.1220703125,-0.18310546875,0.18310546875,0.2669759208960234,0.4029663991210669,-0.8602557451094088,-5.1875,-32.3125,18.75
268.0,-0.6103515625,0.3662109375,0.18310546875,0.271492660298471,0.4035767693105869,-0.8642841883602405,-1.3125,-30.5,23.0625
268.5,0.06103515625,-1.89208984375,0.3662109375,0.2590411084322642,0.4055299539170507,-0.8622089297158727,-13.1875,-27.125,19.9375
269.0,-11.3525390625,8.11767578125,5.31005859375,0.2486648152104251,0.3940549943540757,-0.8862575151829585,-14.6875,-28.25,13.9375
269.5,-10.009765625,0.54931640625,-17.578125,0.2529374065370647,0.5371257667775506,-0.8070314645832698,-26.5,-23.875,12.375
270.0,0.91552734375,4.21142578125,17.51708984375,0.2025208288827173,0.5805841242713706,-0.7643055513168737,-30.3125,-17.25,11.125
270.5,-22.64404296875,17.9443359375,6.103515625,0.4906155583361308,0.4485000152592547,-0.7380596331675161,-27.6875,-22.75,10.75
271.0,4.57763671875,-10.55908203125,-1.64794921875,0.4510635700552385,0.4221320230719931,-0.771141697439497,-13.5625,-29.75,17.9375
271.5,7.8125,0.18310546875,-11.77978515625,0.1860408337656788,0.4852443006683553,-0.7947019867549668,-11.25,-28.625,14.75
272.0,-18.49365234375,-5.0048828125,10.7421875,0.3314310129093295,0.4284798730430005,-0.8250984221930601,-9.6875,-31.9375,14.75
272.5,0.6103515625,4.08935546875,12.39013671875,0.5588549455244606,0.2839442121646778,-0.80458998382519,-20.0625,-25.0,16.75
273.0,-26.2451171875,-11.04736328125,49.37744140625,0.5393230994598224,0.2655110324411756,-0.761375774407178,-24.5625,-24.25,19.125
273.5,-15.56396484375,-13.427734375,27.7099609375,0.4975737784966582,0.3209326456495864,-0.7816400646992401,-24.1875,-24.25,14.75
274.0,2.9296875,3.173828125,-3.41796875,0.4770653401287881,0.3018890957365642,-0.7834711752678,-21.9375,-26.375,16.6875
274.5,15.44189453125,2.38037109375,-46.20361328125,0.5420087282937102,0.2790612506485183,-0.8087405011139256,-23.4375,-26.75,10.0
275.0,7.87353515625,-8.056640625,-21.91162109375,0.2578203680532243,0.3972289193395794,-0.8462172307504502,-19.25,-28.25,11.125
275.5,-17.578125,-25.0244140625,-0.244140625,0.1103549302652058,0.4860988189336833,-0.8384044923245949,-16.1875,-31.25,11.125
276.0,13.7939453125,22.216796875,31.06689453125,0.1657765434736167,0.4696188238166447,-0.8543961912900174,-19.25,-28.25,12.75
276.5,-2.197265625,3.90625,26.4892578125,0.5041657765434736,0.2316965239417706,-0.826807458723716,-18.125,-27.5,11.125
277.0,-0.48828125,-1.15966796875,3.72314453125,0.4165166173284096,0.2159489730521561,-0.8551286355174413,-19.625,-31.25,11.9375
277.5,-0.1220703125,-2.50244140625,-4.94384765625,0.4465468306527909,0.2109439374980926,-0.8237556077761162,-22.3125,-29.0,9.625
278.0,-8.7890625,1.220703125,7.4462890625,0.3497421185949278,0.2963957640308847,-0.8532975249488814,-16.1875,-33.75,10.0
278.5,2.86865234375,-2.50244140625,-3.7841796875,0.4245735038300729,0.3783074434644612,-0.7945799127170629,-7.8125,-34.125,8.375
279.0,-5.06591796875,-6.16455078125,-19.95849609375,0.3787957396160771,0.4292123172704245,-0.8180181279946287,-14.3125,-31.9375,11.5625
279.5,1.708984375,-0.1220703125,-5.79833984375,0.2901699880977813,0.4878078554643391,-0.8180181279946287,-16.9375,-30.125,16.3125
280.0,-8.11767578125,32.53173828125,19.04296875,0.5374919888912626,0.533585619678335,-0.792992950224311,-18.125,-31.5625,11.125
280.5,1.15966796875,1.64794921875,1.0986328125,0.4205450605792413,0.4648579363383892,-0.7744376964629047,-7.0625,-34.875,8.8125
281.0,-2.44140625,4.94384765625,4.150390625,0.4243293557542649,0.4665669728690451,-0.7590563676870021,-16.9375,-31.9375,10.75
281.5,-3.84521484375,3.5400390625,-2.74658203125,0.4880520035401471,0.4609515671254616,-0.7226783043916135,-17.75,-31.25,11.5625
282.0,-5.67626953125,-5.2490234375,-34.66796875,0.4215216528824732,0.6002380443739128,-0.6854457228308969,-7.5,-32.6875,14.75
282.5,-2.86865234375,-1.0986328125,-6.04248046875,0.2127750480666524,0.6512649922177801,-0.7229224524674215,-4.0,-30.875,16.75
283.0,23.92578125,26.91650390625,39.794921875,0.3075045014801477,0.5584887234107486,-0.7467268898586993,-4.0,-30.875,15.5625
283.5,25.87890625,-11.8408203125,7.2021484375,0.3918576616718039,0.4231086153752251,-0.7874996185186316,-7.5,-32.6875,16.75
284.0,-45.8984375,34.36279296875,-28.86962890625,0.4141972106082339,0.4747459334086123,-0.7661366618854335,-9.3125,-29.75,20.3125
284.5,3.96728515625,-15.625,-10.07080078125,0.2938322092349009,0.6273384807885983,-0.7268288216803491,-13.1875,-29.375,15.5625
285.0,-1.64794921875,18.24951171875,39.36767578125,0.5162511062959685,0.5382244331186865,-0.7540513321329386,-7.0625,-32.6875,17.5
285.5,-8.056640625,-9.33837890625,-16.66259765625,0.4621723075045015,0.5168614764854884,-0.7107150486770226,-5.9375,-28.25,19.125
286.0,33.50830078125,2.197265625,-20.263671875,0.3338724936674093,0.5151524399548326,-0.7395245216223639,-12.0,-29.375,13.9375
286.5,2.44140625,-2.13623046875,-3.173828125,0.2867519150364696,0.4548478652302621,-0.8374279000213629,-7.8125,-33.0625,13.5625
287.0,0.91552734375,0.18310546875,2.99072265625,0.2691732535782952,0.4649800103762932,-0.836939603869747,-7.0625,-32.6875,17.125
287.5,-7.8125,25.45166015625,-8.48388671875,0.3346049378948332,0.4658345286416211,-0.815576647236549,-4.75,-30.125,15.5625
288.0,26.123046875,-13.7939453125,26.3671875,0.4483779412213508,0.4535050508133182,-0.8148442030091251,-5.5625,-30.875,14.375
288.5,-10.31494140625,4.82177734375,-4.57763671875,0.4823145237586596,0.4659566026795251,-0.71767326883755,-5.5625,-32.6875,16.3125
289.0,11.65771484375,5.06591796875,-16.6015625,0.2649006622516556,0.4713278603473006,-0.825586718344676,-4.75,-29.75,14.75
289.5,-0.67138671875,-10.43701171875,-0.244140625,0.3230079042939542,0.4300668355357524,-0.8576921903134251,-7.8125,-31.5625,16.3125
290.0,3.173828125,-18.5546875,-6.4697265625,0.4292123172704245,0.3974730674153874,-0.7550279244361705,-7.8125,-30.5,17.125
290.5,8.23974609375,5.126953125,11.71875,0.4160283211767937,0.500137333292642,-0.7378154850917081,-10.875,-29.75,17.125
291.0,-1.15966796875,2.62451171875,-2.0751953125,0.3336283455916013,0.4989165929136021,-0.7967772453993347,-9.6875,-33.4375,16.3125
291.5,1.953125,-2.0751953125,-0.54931640625,0.3558458204901272,0.4831690420239875,-0.7970213934751427,-2.875,-34.875,12.375
292.0,0.67138671875,-1.0986328125,0.3662109375,0.3403424176763207,0.4919583727530747,-0.7882320627460555,-10.125,-33.4375,18.3125
292.5,-0.06103515625,0.0,0.0,0.3458357493820002,0.4867091891232032,-0.793359172338023,-6.6875,-32.3125,16.3125
293.0,-0.1220703125,0.244140625,0.244140625,0.3436384166997284,0.4820703756828516,-0.7910397656178472,-7.8125,-31.5625,18.3125
293.5,0.3662109375,-0.9765625,-0.244140625,0.3391216772972808,0.477797784356212,-0.7949461348307749,-6.3125,-33.75,16.75
294.0,0.3662109375,-0.48828125,0.67138671875,0.3459578234199041,0.4814600054933317,-0.8008056886501663,-5.9375,-29.75,17.5
294.5,21.3623046875,-7.26318359375,29.1748046875,0.4249397259437849,0.3604846339304788,-0.8249763481551561,-5.9375,-33.75,14.75
295.0,0.1220703125,-16.2353515625,-14.2822265625,0.4423963133640552,0.4084597308267464,-0.7791985839411603,-5.9375,-33.4375,15.1875
295.5,5.55419921875,-14.70947265625,-28.25927734375,0.3443708609271523,0.5146641438032167,-0.727927488021485,-7.8125,-32.6875,15.5625
296.0,10.6201171875,5.37109375,43.39599609375,0.3065279091769158,0.5991393780327768,-0.7193823053682058,-7.8125,-31.9375,17.125
296.5,-7.080078125,-8.60595703125,0.42724609375,0.3921018097476119,0.5172276985992004,-0.7640614032410658,-6.6875,-31.5625,15.9375
297.0,-1.220703125,0.67138671875,1.46484375,0.3470564897610401,0.5178380687887204,-0.772240363780633,-5.5625,-33.0625,16.75
297.5,0.54931640625,-0.48828125,-1.8310546875,0.3856318857387005,0.5304116946928312,-0.760765404217658,-8.9375,-31.9375,16.3125
298.0,7.9345703125,-9.033203125,-2.01416015625,0.2413403729361858,0.4286019470809045,-0.8207037568285165,-6.6875,-33.4375,16.75
298.5,0.1220703125,0.6103515625,0.8544921875,0.3347270119327372,0.4904934842982268,-0.7971434675130467,-7.5,-29.375,17.125
299.0,0.1220703125,-0.244140625,-0.18310546875,0.3226416821802423,0.4846339304788354,-0.7993408001953185,-4.75,-30.125,18.3125
299.5,-0.67138671875,1.0986328125,1.03759765625,0.3293557542649617,0.4865871150852992,-0.7948240607928708,-5.1875,-34.125,18.3125
300.0,0.0,0.30517578125,0.06103515625,0.3339945677053132,0.4858546708578753,-0.8004394665364544,-4.75,-31.9375,17.9375
300.5,0.0,-0.42724609375,-0.18310546875,0.3320413830988494,0.4859767448957793,-0.7983642078920865,-4.75,-33.0625,19.125
301.0,-0.8544921875,1.5869140625,1.0986328125,0.3243507187108981,0.4874416333506272,-0.7945799127170629,-4.75,-30.5,18.3125
301.5,0.0,-0.54931640625,0.30517578125,0.3248390148625141,0.4824365977965636,-0.7978759117404706,-3.25,-30.125,18.3125
302.0,0.42724609375,1.64794921875,-1.52587890625,0.3076265755180517,0.4817041535691397,-0.7977538377025666,-4.375,-32.6875,19.125
302.5,0.1220703125,-0.48828125,0.48828125,0.3280129398480178,0.4843897824030274,-0.8012939848017823,-4.0,-31.25,17.125
303.0,0.3662109375,-1.5869140625,-2.3193359375,0.3272804956205939,0.4892727439191869,-0.8076418347727897,-4.75,-32.3125,19.5625
303.5,2.38037109375,0.1220703125,-2.0751953125,0.3758659627063814,0.4425183874019593,-0.8056886501663258,-3.25,-29.375,17.5
304.0,0.1220703125,-3.11279296875,0.06103515625,0.3285012359996337,0.4713278603473006,-0.7989745780816065,-4.375,-29.375,17.125
304.5,1.89208984375,4.638671875,-1.220703125,0.3831904049806207,0.4521622363963744,-0.8072756126590778,-3.625,-28.625,19.5625
305.0,-1.46484375,0.9765625,1.52587890625,0.3388775292214728,0.4740134891811884,-0.7926267281105991,-4.375,-29.375,17.5
305.5,-0.732421875,-0.6103515625,1.52587890625,0.3424176763206885,0.4734031189916684,-0.8062990203558458,-6.3125,-30.875,19.125
306.0,4.57763671875,6.7138671875,-10.80322265625,0.3731803338724936,0.4754783776360362,-0.7843256935331279,-5.1875,-30.875,16.75
306.5,2.9296875,5.79833984375,-5.37109375,0.3308206427198095,0.4806054872280038,-0.7909176915799432,-3.625,-29.375,17.5
307.0,-1.46484375,-1.708984375,4.45556640625,0.370128482924894,0.478530228583636,-0.7918942838831752,-2.5,-29.375,18.3125
307.5,0.6103515625,-2.0751953125,2.0751953125,0.380260628070925,0.4657124546037171,-0.7942136906033509,-4.375,-30.5,18.3125
308.0,3.2958984375,7.9345703125,-9.033203125,0.3725699636829737,0.5030671102023377,-0.7740714743491928,-4.375,-30.5,18.3125
308.5,-2.44140625,-3.11279296875,4.57763671875,0.3520615253151036,0.4933011871700186,-0.7771233252967925,-3.625,-29.0,19.9375
309.0,-0.42724609375,2.5634765625,2.0751953125,0.336802270577105,0.4950102237006744,-0.7876216925565356,-2.875,-31.5625,19.125
309.5,-3.72314453125,-10.92529296875,20.751953125,0.358409375286111,0.4328745384075442,-0.815332499160741,-4.375,-29.75,16.75
310.0,2.0751953125,0.67138671875,-5.0048828125,0.336680196539201,0.4596087527085177,-0.8087405011139256,-2.5,-30.5,14.75
310.5,6.40869140625,1.5869140625,-4.21142578125,0.3420514542069765,0.4686422315134129,-0.8036133915219581,-2.0625,-29.375,18.75
311.0,-2.38037109375,-1.89208984375,-0.42724609375,0.3549913022247993,0.4681539353617969,-0.8076418347727897,-3.25,-32.3125,17.125
311.5,-0.48828125,0.18310546875,0.244140625,0.3127536851100192,0.4726706747642445,-0.8193609424115726,-2.875,-29.75,17.125
312.0,0.67138671875,0.79345703125,1.220703125,0.3067720572527238,0.4539933469649342,-0.825342570268868,0.875,-31.5625,15.5625
312.5,4.39453125,9.27734375,-14.34326171875,0.3123874629963072,0.4980620746482742,-0.7910397656178472,-11.25,-32.3125,15.1875
313.0,-2.5634765625,-7.87353515625,3.35693359375,0.3238624225592822,0.4286019470809045,-0.8430433057649465,-9.3125,-30.125,12.375
313.5,1.15966796875,-0.244140625,0.732421875,0.3210547196874904,0.4818262276070437,-0.8023926511429181,2.0,-33.4375,12.375
314.0,-7.4462890625,-5.2490234375,7.080078125,0.2927335428937651,0.4400769066438795,-0.8174077578051088,-7.5,-27.875,21.875
314.5,-0.42724609375,-0.54931640625,1.0986328125,0.3285012359996337,0.4394665364543595,-0.8164311655018769,-8.1875,-27.5,19.5625
315.0,0.42724609375,0.30517578125,-0.1220703125,0.3440046388134403,0.467909787285989,-0.804101687673574,-10.5,-29.0,21.875
315.5,-0.732421875,0.1220703125,0.9765625,0.3243507187108981,0.466689046906949,-0.8054445020905179,-9.6875,-29.0,21.0625
316.0,-8.056640625,4.57763671875,12.02392578125,0.3613391521958067,0.4404431287575915,-0.815210425122837,-7.8125,-28.625,15.9375
316.5,0.8544921875,-13.3056640625,-25.20751953125,0.1549119541001617,0.5315103610339671,-0.7671132541886654,3.5625,-31.5625,14.75
317.0,13.73291015625,8.9111328125,39.9169921875,0.3315530869472335,0.4723044526505325,-0.8103274636066774,-4.75,-31.25,16.3125
317.5,-24.2919921875,12.51220703125,-21.05712890625,0.4381237220374157,0.6176946317941832,-0.6765343180639057,-13.1875,-30.125,15.5625
318.0,2.86865234375,1.5869140625,7.62939453125,0.2429273354289376,0.6867885372478408,-0.7264625995666372,-3.25,-29.375,19.5625
318.5,-55.84716796875,-53.5888671875,26.42822265625,0.1816461684011353,0.2807702871791742,-0.8782006286812952,-10.5,-27.875,18.3125
319.0,-15.0146484375,20.5078125,-14.16015625,0.2945646534623249,0.4511856440931425,-0.8408459730826746,-13.1875,-28.25,17.9375
319.5,4.2724609375,-6.103515625,-6.2255859375,0.4509414960173345,0.2955412457655568,-0.8218024231696524,-6.3125,-33.0625,16.3125
320.0,-6.4697265625,-1.77001953125,1.03759765625,0.2868739890743736,0.3161717581713309,-0.8927274391918699,-1.3125,-30.5,17.125
320.5,-29.541015625,3.662109375,-32.8369140625,0.3211767937253944,0.380016479995117,-0.8603778191473128,-2.0625,-31.25,18.75
321.0,3.96728515625,-7.6904296875,-16.54052734375,0.1945860164189581,0.5532395397808771,-0.7832270271919919,0.125,-32.3125,14.375
321.5,5.7373046875,25.2685546875,66.5283203125,0.3226416821802423,0.511368144779809,-0.7739494003112888,-7.5,-30.5,16.3125
322.0,-3.23486328125,8.1787109375,7.9345703125,0.5183263649403363,0.4262825403607287,-0.7538071840571307,-7.8125,-29.75,17.9375
322.5,-0.6103515625,-17.333984375,-19.34814453125,0.2667317728202155,0.4185918759727774,-0.8415784173100985,-1.6875,-33.4375,14.0
323.0,39.61181640625,33.14208984375,44.677734375,0.2924893948179571,0.390758995330668,-0.7738273262733848,-2.875,-31.25,15.5625
323.5,-3.35693359375,0.8544921875,-10.3759765625,0.4345835749382,0.3306985686819055,-0.8028809472945342,-9.6875,-30.875,16.3125
324.0,-9.82666015625,-14.95361328125,-31.73828125,0.380626850184637,0.4580217902157658,-0.7993408001953185,-10.5,-32.6875,15.9375
324.5,7.8125,-5.55419921875,2.50244140625,0.2616046632282479,0.4724265266884365,-0.8342539750358593,-9.3125,-32.3125,15.1875
325.0,-4.45556640625,1.77001953125,-3.5400390625,0.2795495468001343,0.5160069582201605,-0.8126468703268532,-5.9375,-32.6875,15.1875
325.5,-3.84521484375,-2.44140625,3.2958984375,0.2244941557054353,0.5620288705099643,-0.7979979857783746,-10.875,-30.875,17.5
326.0,6.53076171875,0.67138671875,16.54052734375,0.3842890713217566,0.3972289193395794,-0.7923825800347911,-12.8125,-29.0,16.75
326.5,-12.20703125,4.45556640625,-7.50732421875,0.4193243202002014,0.4863429670094912,-0.7585680715353862,-5.9375,-29.75,17.9375
327.0,-4.39453125,-2.0751953125,-3.72314453125,0.3389996032593768,0.5172276985992004,-0.793725394451735,-1.6875,-29.75,17.5
327.5,-2.8076171875,1.8310546875,2.9296875,0.2652668843653676,0.5818048646504105,-0.7412335581530198,-6.3125,-30.5,15.9375
328.0,3.47900390625,16.6015625,38.57421875,0.4764549699392681,0.5149082918790246,-0.7618640705587939,-10.5,-26.75,20.75
328.5,0.0,1.64794921875,4.82177734375,0.4403210547196874,0.4198126163518174,-0.7578356273079623,-9.3125,-30.875,17.5
329.0,-6.103515625,-4.7607421875,-6.65283203125,0.4594866786706137,0.478408154545732,-0.7546617023224585,-8.1875,-28.625,20.75
329.5,0.9765625,-4.69970703125,-11.29150390625,0.3062837611011078,0.5175939207129123,-0.782006286812952,-9.3125,-30.5,19.5625
330.0,21.6064453125,13.427734375,37.109375,0.456556901760918,0.3792840357676931,-0.8342539750358593,-5.9375,-30.5,17.125
330.5,-0.18310546875,-0.30517578125,-0.6103515625,0.4631488998077334,0.380748924222541,-0.7759025849177527,-2.875,-30.125,14.75
331.0,-9.58251953125,-3.23486328125,-29.78515625,0.4605853450117496,0.4295785393841365,-0.761497848445082,-4.375,-28.625,18.3125
331.5,18.00537109375,0.9765625,-2.9296875,0.2561113315225684,0.489394817957091,-0.8519547105319376,-7.0625,-29.375,16.75
332.0,1.77001953125,13.85498046875,26.123046875,0.2619708853419599,0.4395886104922635,-0.7540513321329386,-11.625,-31.9375,17.125
332.5,-0.6103515625,2.25830078125,17.7001953125,0.4189580980864894,0.3647572252571184,-0.8221686452833643,-10.875,-30.5,17.9375
333.0,-5.37109375,3.35693359375,-2.44140625,0.4223761711478011,0.4080935087130344,-0.7901852473525193,-9.3125,-29.0,16.75
333.5,-1.40380859375,-0.3662109375,-2.685546875,0.4279915768913846,0.3971068453016754,-0.7994628742332225,-7.8125,-28.25,17.5
334.0,-0.67138671875,-0.06103515625,-0.79345703125,0.4008911404766991,0.3881954405346843,-0.8023926511429181,-9.6875,-30.125,15.5625
334.5,-8.11767578125,-4.5166015625,-14.09912109375,0.4066286202581866,0.4112674336985382,-0.8072756126590778,-10.125,-30.125,15.9375
335.0,0.1220703125,-4.638671875,-11.5966796875,0.260628070925016,0.4852443006683553,-0.8272957548753319,-0.9375,-31.9375,15.9375
335.5,2.0751953125,6.34765625,5.92041015625,0.30420850245674,0.4851222266304513,-0.8010498367259743,-2.0625,-30.125,19.5625
336.0,1.220703125,-0.54931640625,8.23974609375,0.3851435895870845,0.4229865413373211,-0.8095950193792535,2.0,-32.6875,15.9375
336.5,-0.18310546875,-2.86865234375,0.54931640625,0.3558458204901272,0.401867732779931,-0.8089846491897336,-6.6875,-29.0,15.1875
337.0,-2.0751953125,-0.244140625,-0.54931640625,0.3936887722403638,0.4277474288155766,-0.7989745780816065,-10.125,-27.125,17.125
337.5,-1.89208984375,0.8544921875,2.685546875,0.41285439619129,0.4511856440931425,-0.783593249305704,-10.5,-29.75,12.75
338.0,0.244140625,-0.54931640625,1.52587890625,0.4111453596606341,0.4298226874599444,-0.7903073213904233,-4.75,-31.5625,15.1875
338.5,-0.42724609375,-0.3662109375,-0.18310546875,0.4091921750541704,0.4259163182470168,-0.7907956175420392,-6.6875,-31.9375,15.1875
339.0,-0.48828125,0.6103515625,-0.42724609375,0.4152958769493698,0.4260383922849208,-0.7871333964049196,-8.5625,-31.5625,18.3125
339.5,-8.72802734375,-12.63427734375,-31.18896484375,0.3726920377208777,0.4731589709158604,-0.7867671742912076,-7.0625,-28.625,19.5625
340.0,-3.35693359375,-1.0986328125,-2.38037109375,0.2446363719595934,0.5238196966460158,-0.8102053895687734,-10.125,-30.5,17.125
340.5,-1.0986328125,-4.8828125,-8.97216796875,0.2141178624835963,0.5263832514419996,-0.8178960539567247,-9.6875,-29.375,16.3125
341.0,13.0615234375,7.9345703125,14.16015625,0.1440473647267067,0.5902279732657857,-0.7730948820459609,-8.1875,-29.0,18.3125
341.5,5.0048828125,-2.8076171875,22.64404296875,0.4705954161198767,0.3974730674153874,-0.8030030213324382,-10.5,-29.375,15.5625
342.0,-5.2490234375,0.0,-4.2724609375,0.4303109836115604,0.3864864040040284,-0.80458998382519,-2.875,-31.5625,17.125
342.5,-14.70947265625,-4.2724609375,-18.5546875,0.3714712973418378,0.4763328959013642,-0.7832270271919919,-5.1875,-33.0625,13.1875
343.0,0.79345703125,-0.67138671875,9.033203125,0.3569444868312632,0.5266273995178076,-0.7591784417249061,-5.5625,-30.875,15.1875
343.5,4.45556640625,5.92041015625,4.82177734375,0.3941770683919797,0.4521622363963744,-0.7791985839411603,-5.5625,-31.25,15.9375
344.0,3.60107421875,-0.30517578125,2.38037109375,0.4066286202581866,0.4345835749382,-0.7888424329355754,-5.9375,-31.5625,18.3125
344.5,1.03759765625,0.3662109375,3.41796875,0.3944212164677877,0.4193243202002014,-0.7982421338541825,-5.1875,-31.9375,17.125
345.0,-0.9765625,-2.38037109375,-0.67138671875,0.4242072817163609,0.4047975096896267,-0.7998290963469344,-5.1875,-30.875,15.9375
345.5,-1.40380859375,-1.03759765625,-1.708984375,0.4248176519058809,0.4106570635090182,-0.7977538377025666,-5.5625,-32.3125,18.3125
346.0,0.06103515625,0.9765625,0.48828125,0.4106570635090182,0.4157841731009857,-0.7949461348307749,-5.1875,-30.875,17.5
346.5,-13.36669921875,-2.0751953125,-17.02880859375,0.3827021088290048,0.5020905178991059,-0.7701651051362651,-6.6875,-32.6875,14.75
347.0,1.52587890625,-0.6103515625,0.3662109375,0.3203222754600665,0.5252845851008636,-0.7850581377605518,-5.5625,-33.4375,16.75
347.5,-1.3427734375,-0.18310546875,2.685546875,0.336802270577105,0.5033112582781457,-0.7816400646992401,-6.6875,-30.125,15.1875
348.0,0.54931640625,-1.03759765625,-0.8544921875,0.3346049378948332,0.5061189611499375,-0.7837153233436079,-5.1875,-31.9375,16.75
348.5,0.42724609375,-1.220703125,2.5634765625,0.3404644917142246,0.4924466689046907,-0.7949461348307749,-7.5,-30.125,20.75
349.0,0.30517578125,0.42724609375,2.99072265625,0.3440046388134403,0.4963530381176183,-0.783593249305704,-5.5625,-30.875,16.75
349.5,0.8544921875,0.42724609375,0.3662109375,0.3574327829828791,0.4930570390942106,-0.7838373973815119,-2.875,-30.125,16.3125
350.0,0.42724609375,0.1220703125,0.54931640625,0.3498641926328318,0.4973296304208502,-0.781884212775048,-1.3125,-29.0,16.75
350.5,0.42724609375,-1.15966796875,0.79345703125,0.3575548570207831,0.4842677083651234,-0.7848139896847438,-3.625,-32.6875,17.5
351.0,-0.06103515625,0.06103515625,0.1220703125,0.358287301248207,0.4876857814264351,-0.7805413983581042,-8.5625,-29.0,13.9375
351.5,0.8544921875,-0.3662109375,0.67138671875,0.3592638935514389,0.4776757103183081,-0.7881099887081515,-7.0625,-30.125,17.9375
352.0,0.42724609375,-0.18310546875,0.42724609375,0.3468123416852321,0.4862208929715872,-0.7893307290871914,-2.875,-31.9375,19.5625
352.5,-0.42724609375,0.67138671875,-1.64794921875,0.3530381176183355,0.4850001525925473,-0.7842036194952239,-2.875,-30.5,18.3125
353.0,2.3193359375,1.15966796875,0.0,0.3458357493820002,0.4825586718344676,-0.7911618396557513,-2.0625,-29.0,17.9375
353.5,1.3427734375,-1.46484375,-0.06103515625,0.3471785637989441,0.4754783776360362,-0.7998290963469344,-0.9375,-30.5,14.375
354.0,-3.0517578125,-3.72314453125,-2.74658203125,0.3507187108981597,0.4622943815424055,-0.8003173924985504,-1.3125,-30.125,17.9375
354.5,1.220703125,-8.544921875,-9.09423828125,0.3502304147465437,0.5490890224921415,-0.7791985839411603,-4.375,-30.5,17.9375
355.0,0.18310546875,-0.1220703125,-0.54931640625,0.2644123661000396,0.5461592455824458,-0.7922605059968871,-5.9375,-31.5625,17.125
355.5,9.27734375,13.427734375,40.283203125,0.2635578478347117,0.4759666737876522,-0.7418439283425398,-11.25,-29.0,15.9375
356.0,0.0,2.3193359375,5.55419921875,0.391247291482284,0.4381237220374157,-0.7999511703848384,-6.3125,-30.875,18.75
356.5,-0.42724609375,1.40380859375,-0.91552734375,0.3730582598345897,0.455946531571398,-0.7861568041016876,-4.0,-31.9375,15.9375
357.0,-2.74658203125,-17.2119140625,-30.94482421875,0.2883388775292215,0.4839014862514115,-0.8126468703268532,-9.6875,-30.5,22.6875
357.5,1.8310546875,1.15966796875,1.5869140625,0.2318185979796746,0.510635700552385,-0.8004394665364544,-10.125,-27.875,18.3125
358.0,0.1220703125,0.1220703125,1.220703125,0.2622150334177678,0.5122226630451369,-0.8185064241462447,-10.875,-29.75,17.125
358.5,0.48828125,0.42724609375,1.0986328125,0.2697836237678152,0.5031891842402417,-0.8174077578051088,-10.125,-28.25,20.3125
359.0,1.3427734375,1.77001953125,1.15966796875,0.2544022949919126,0.4963530381176183,-0.8109378337961974,-12.4375,-26.125,15.5625
359.5,2.197265625,-0.6103515625,8.1787109375,0.3171483504745628,0.4572893459883419,-0.8104495376445814,-12.0,-30.5,17.125
360.0,0.6103515625,-0.732421875,3.2958984375,0.3341166417432172,0.4525284585100864,-0.8052003540147099,-13.9375,-28.625,16.75
360.5,1.46484375,5.79833984375,28.74755859375,0.3714712973418378,0.3670766319772942,-0.8181402020325327,-13.1875,-28.625,17.125
361.0,-7.9345703125,-9.6435546875,-29.6630859375,0.4487441633350627,0.4326303903317362,-0.7999511703848384,-12.4375,-27.125,17.9375
361.5,-0.244140625,13.671875,10.07080078125,0.2525711844233527,0.5022125919370098,-0.8060548722800378,-9.6875,-26.75,16.75
362.0,-1.0986328125,2.25830078125,26.42822265625,0.522598956266976,0.4072389904477065,-0.8027588732566302,-11.25,-28.25,16.3125
362.5,0.30517578125,0.67138671875,0.1220703125,0.434095278786584,0.3969847712637714,-0.781884212775048,-8.9375,-29.375,19.125
363.0,-2.50244140625,1.77001953125,0.30517578125,0.4317758720664083,0.3842890713217566,-0.7995849482711265,-10.875,-26.4375,21.5
363.5,0.3662109375,1.77001953125,0.54931640625,0.4398327585680715,0.3735465559862056,-0.7862788781395916,-12.0,-29.75,20.75
364.0,-0.06103515625,0.42724609375,0.79345703125,0.4481337931455427,0.3778191473128452,-0.781884212775048,-12.0,-28.25,19.125
364.5,0.1220703125,-1.3427734375,-0.9765625,0.4404431287575915,0.3573107089449751,-0.7898190252388073,-9.6875,-27.125,19.9375
365.0,0.6103515625,2.197265625,-0.244140625,0.456801049836726,0.3606067079683828,-0.7854243598742637,-12.4375,-29.0,19.5625
365.5,0.244140625,0.1220703125,-0.1220703125,0.4541154210028382,0.3658558915982543,-0.7942136906033509,-2.875,-30.5,15.5625
366.0,0.06103515625,-0.18310546875,0.0,0.4510635700552385,0.3571886349070711,-0.7948240607928708,-7.0625,-27.5,17.5
366.5,0.79345703125,-2.0751953125,1.77001953125,0.4471572008423108,0.3503524887844477,-0.804101687673574,-9.3125,-27.5,19.9375
367.0,0.3662109375,-2.9296875,0.6103515625,0.456190679647206,0.3507187108981597,-0.8003173924985504,-8.1875,-29.75,18.3125
367.5,1.77001953125,-1.77001953125,2.01416015625,0.4487441633350627,0.3541367839594714,-0.7888424329355754,0.5,-31.5625,17.125
368.0,0.06103515625,-1.0986328125,0.244140625,0.4463026825769829,0.3527939695425275,-0.7949461348307749,-4.375,-30.5,17.5
368.5,0.18310546875,-2.50244140625,2.01416015625,0.4525284585100864,0.3469344157231361,-0.8026367992187261,-6.3125,-29.375,17.9375
369.0,-0.42724609375,-0.79345703125,0.0,0.456068605609302,0.3520615253151036,-0.7944578386791589,-10.125,-30.5,19.5625
369.5,-0.67138671875,1.46484375,-1.77001953125,0.4525284585100864,0.3634144108401745,-0.7865230262153996,-9.3125,-29.0,18.75
370.0,-0.1220703125,2.197265625,-0.79345703125,0.4640034180730613,0.3554795983764153,-0.7911618396557513,-8.9375,-29.0,16.75
370.5,-8.4228515625,-19.6533203125,-26.9775390625,0.4470351268044069,0.3873409222693563,-0.7950682088686789,-10.5,-29.75,19.9375
371.0,-1.953125,6.53076171875,4.21142578125,0.2243720816675313,0.4616840113528855,-0.8281502731406598,-7.8125,-30.5,19.9375
371.5,-2.01416015625,5.67626953125,19.1650390625,0.4272591326639607,0.3897824030274361,-0.7810296945097202,-8.9375,-28.25,22.6875
372.0,-6.04248046875,1.0986328125,-8.1787109375,0.4323862422559282,0.3717154454176458,-0.814477980895413,-10.125,-27.875,19.125
372.5,3.41796875,-5.37109375,-20.263671875,0.2678304391613513,0.4904934842982268,-0.8174077578051088,-9.3125,-27.875,18.3125
373.0,6.34765625,11.1083984375,25.0244140625,0.2624591814935758,0.4644917142246773,-0.8536637470625935,-8.1875,-29.75,19.125
373.5,3.96728515625,-0.18310546875,9.21630859375,0.3619495223853267,0.413220618305002,-0.8319345683156835,-10.5,-26.4375,20.75
374.0,-4.94384765625,11.5966796875,6.53076171875,0.3933225501266518,0.3922238837855159,-0.8198492385631886,-5.1875,-31.9375,18.3125
374.5,1.708984375,-1.3427734375,1.8310546875,0.402111880855739,0.3951536606952116,-0.8102053895687734,-8.9375,-29.75,19.125
375.0,0.30517578125,-1.52587890625,2.74658203125,0.4193243202002014,0.3850215155491805,-0.8071535386211738,-3.25,-33.0625,15.1875
375.5,0.42724609375,-0.54931640625,1.64794921875,0.4116336558122501,0.3850215155491805,-0.8038575395977661,0.125,-30.5,13.1875
376.0,0.6103515625,3.84521484375,-4.5166015625,0.4160283211767937,0.4077272865993225,-0.7965330973235267,-8.9375,-28.25,15.9375
376.5,0.3662109375,-1.40380859375,0.91552734375,0.4168828394421216,0.3874629963072603,-0.8038575395977661,-11.625,-27.875,15.5625
377.0,-1.03759765625,-1.40380859375,2.0751953125,0.4113895077364422,0.3890499588000122,-0.7984862819299905,-11.625,-28.25,19.125
377.5,0.48828125,-0.1220703125,-0.3662109375,0.4187139500106814,0.369518112735374,-0.8086184270760216,-10.125,-29.75,16.75
378.0,-0.1220703125,1.77001953125,0.3662109375,0.423352763451033,0.3776970732749412,-0.8060548722800378,-12.4375,-29.375,17.9375
378.5,0.8544921875,1.64794921875,0.732421875,0.4209112826929533,0.3775749992370372,-0.8049562059389019,-10.125,-28.625,18.75
379.0,2.50244140625,-15.56396484375,-15.869140625,0.4082155827509384,0.3376567888424329,-0.8521988586077456,-11.25,-29.0,18.3125
379.5,5.7373046875,0.9765625,-1.64794921875,0.2562334055604724,0.4505752739036225,-0.8500015259254738,-9.6875,-28.25,14.75
380.0,-22.03369140625,23.92578125,-20.69091796875,0.5008697775200659,0.4073610644856105,-0.8511001922666097,-11.25,-30.125,15.5625
380.5,2.13623046875,-11.5966796875,-12.14599609375,0.2576982940153203,0.5461592455824458,-0.8008056886501663,-4.75,-31.9375,19.5625
381.0,13.3056640625,11.04736328125,21.54541015625,0.2528153324991607,0.6130558183538316,-0.7525864436780908,-1.3125,-30.125,19.5625
381.5,-1.220703125,0.30517578125,1.77001953125,0.4310434278389843,0.3936887722403638,-0.8098391674550615,-10.5,-28.25,19.9375
382.0,-2.0751953125,1.5869140625,-2.3193359375,0.4486220892971587,0.4060182500686666,-0.7862788781395916,-11.25,-30.875,17.9375
382.5,-0.732421875,0.8544921875,1.28173828125,0.4412976470229194,0.3941770683919797,-0.7800531022064883,-9.3125,-29.75,17.5
383.0,0.30517578125,-0.67138671875,-0.06103515625,0.4356822412793359,0.3757438886684774,-0.7955565050202948,-10.5,-28.25,18.75
383.5,0.48828125,1.220703125,-0.732421875,0.4505752739036225,0.3784295175023652,-0.793603320413831,-10.875,-27.875,17.125
384.0,0.67138671875,0.0,-0.54931640625,0.4414197210608234,0.3790398876918851,-0.7866451002533036,-11.25,-29.0,17.125
384.5,-0.8544921875,0.6103515625,-0.42724609375,0.4409314249092074,0.3812372203741569,-0.7884762108218635,-7.8125,-28.25,18.3125
385.0,-1.15966796875,0.8544921875,-0.48828125,0.4437391277809991,0.380504776146733,-0.7872554704428236,0.875,-32.3125,15.9375
385.5,1.03759765625,-0.9765625,0.79345703125,0.4425183874019593,0.3640247810296945,-0.7959227271340068,1.625,-33.75,15.9375
386.0,-11.90185546875,-16.54052734375,-30.94482421875,0.2519608142338328,0.5124668111209448,-0.7727286599322489,-6.3125,-28.625,17.125
386.5,8.23974609375,17.578125,24.169921875,0.2943205053865169,0.4992828150273141,-0.8182622760704367,-9.6875,-29.75,17.9375
387.0,1.15966796875,2.99072265625,2.5634765625,0.3787957396160771,0.4159062471388897,-0.7889645069734794,-13.1875,-27.5,19.9375
387.5,-0.244140625,0.67138671875,5.92041015625,0.4531388286996063,0.4116336558122501,-0.7783440656758324,-11.25,-25.0,17.9375
388.0,0.0,0.42724609375,-1.52587890625,0.4321420941801202,0.4085818048646504,-0.7694326609088412,-13.1875,-29.0,18.75
388.5,-0.48828125,0.0,0.1220703125,0.4354380932035279,0.390881069368572,-0.7964110232856227,-12.8125,-29.375,19.9375
389.0,-0.30517578125,-0.244140625,-0.48828125,0.4401989806817835,0.3969847712637714,-0.781884212775048,-10.875,-27.5,16.6875
389.5,-0.06103515625,0.48828125,-0.9765625,0.4312875759147923,0.3964964751121555,-0.7810296945097202,-11.25,-26.375,17.5
390.0,-8.056640625,-10.68115234375,-14.892578125,0.4364146855067598,0.4185918759727774,-0.8008056886501663,0.875,-31.25,17.125
390.5,0.9765625,-15.68603515625,-28.9306640625,0.2436597796563616,0.5641041291543321,-0.7678456984160894,-7.5,-30.125,16.6875
391.0,4.08935546875,1.5869140625,6.103515625,0.1701712088381603,0.6112247077852717,-0.7904293954283272,-9.6875,-30.125,17.9375
391.5,16.29638671875,10.68115234375,49.6826171875,0.3975951414532914,0.4004028443250831,-0.8103274636066774,-8.1875,-30.125,17.9375
392.0,1.3427734375,0.42724609375,2.197265625,0.4372692037720878,0.3596301156651509,-0.8060548722800378,-11.25,-30.5,16.6875
392.5,-2.38037109375,1.8310546875,-0.732421875,0.4436170537430952,0.3700064088869899,-0.7907956175420392,-8.1875,-29.0,17.5
393.0,0.06103515625,1.64794921875,-1.52587890625,0.4485000152592547,0.369518112735374,-0.7851802117984558,-9.6875,-31.25,20.3125
393.5,0.1220703125,-0.06103515625,0.732421875,0.4520401623584704,0.3503524887844477,-0.8080080568865017,-10.125,-29.375,15.5625
394.0,-0.42724609375,1.03759765625,-1.40380859375,0.4448377941221351,0.358531449324015,-0.7973876155888546,-10.5,-29.0,21.5
394.5,0.06103515625,-0.3662109375,0.0,0.4433729056672872,0.3451033051545762,-0.8072756126590778,-8.9375,-28.25,19.9375
395.0,5.0048828125,-3.11279296875,-4.150390625,0.4629047517319254,0.3393658253730888,-0.8113040559099094,-13.1875,-29.375,19.9375
395.5,-23.92578125,-25.20751953125,-27.83203125,0.2188787499618518,0.4897610400708029,-0.8541520432142095,-3.625,-33.75,15.5625
396.0,11.90185546875,33.3251953125,23.0712890625,0.4177373577074496,0.4802392651142918,-0.8556169316690573,1.25,-30.5,11.125
396.5,0.48828125,6.77490234375,2.9296875,0.4143192846461379,0.3995483260597552,-0.804223761711478,-4.75,-29.375,15.9375
397.0,0.54931640625,3.11279296875,2.86865234375,0.4426404614398633,0.3888058107242042,-0.8056886501663258,-10.5,-29.75,18.3125
397.5,0.79345703125,0.1220703125,1.28173828125,0.4246955778679769,0.3752555925168614,-0.8083742790002136,-11.25,-31.25,15.5625
398.0,-0.42724609375,-0.8544921875,-0.91552734375,0.4141972106082339,0.3778191473128452,-0.7993408001953185,-10.875,-30.125,17.5
398.5,-0.1220703125,2.3193359375,-0.54931640625,0.4254280220954008,0.3790398876918851,-0.7975096896267586,-10.5,-30.5,19.125
399.0,0.48828125,0.18310546875,-0.06103515625,0.4411755729850154,0.3726920377208777,-0.7984862819299905,-9.3125,-28.625,19.125
399.5,-0.48828125,1.40380859375,-0.42724609375,0.4442274239326151,0.3757438886684774,-0.7918942838831752,-11.625,-27.5,20.3125
400.0,0.67138671875,-1.0986328125,-0.244140625,0.434095278786584,0.3717154454176458,-0.8017822809533982,-12.0,-28.25,17.9375
400.5,0.54931640625,0.0,-0.18310546875,0.4361705374309518,0.3639027069917905,-0.7927488021485031,-9.6875,-30.125,15.1875
401.0,-15.93017578125,0.732421875,-40.8935546875,0.3861201818903165,0.5089266640217291,-0.7625965147862178,0.5,-31.5625,15.5625
401.5,-4.94384765625,-8.23974609375,-9.46044921875,0.2214423047578356,0.5799737540818506,-0.7799310281685843,-5.1875,-30.125,14.75
402.0,14.83154296875,16.90673828125,20.5078125,0.1676076540421766,0.5446943571275978,-0.8290047914059877,-5.5625,-27.125,17.5
402.5,0.91552734375,3.173828125,11.04736328125,0.4596087527085177,0.4388561662648396,-0.7674794763023773,-5.9375,-30.5,18.3125
403.0,0.67138671875,-0.1220703125,-0.48828125,0.4571672719504379,0.4061403241065706,-0.7682119205298014,-3.625,-29.75,20.3125
403.5,0.67138671875,-2.197265625,1.03759765625,0.4576555681020539,0.3718375194555497,-0.7884762108218635,-2.875,-30.5,17.9375
404.0,0.18310546875,1.0986328125,-1.0986328125,0.4526505325479903,0.3733024079103976,-0.7868892483291116,-1.3125,-30.5,11.125
404.5,0.06103515625,-0.732421875,1.15966796875,0.4515518662068544,0.3734244819483016,-0.7864009521774956,2.375,-32.3125,15.5625
405.0,0.06103515625,0.06103515625,-0.3662109375,0.4552140873439741,0.3748893704031495,-0.7846919156468398,2.375,-33.75,11.5625
405.5,-0.3662109375,0.54931640625,-0.48828125,0.4525284585100864,0.3686635944700461,-0.7909176915799432,-5.9375,-30.5,16.3125
406.0,-1.64794921875,-2.44140625,-8.97216796875,0.4509414960173345,0.3460798974578081,-0.782128360850856,-11.25,-30.125,17.125
406.5,-6.591796875,-14.0380859375,-24.7802734375,0.228156376842555,0.5142979216895047,-0.8336436048463393,-9.3125,-30.5,17.125
407.0,4.7607421875,7.568359375,6.9580078125,0.2232734153263954,0.511123996704001,-0.7958006530961028,-5.9375,-28.625,18.3125
407.5,2.13623046875,4.69970703125,12.51220703125,0.3591418195135349,0.4548478652302621,-0.8036133915219581,-4.375,-23.5,26.625
408.0,-0.06103515625,8.9111328125,5.79833984375,0.3469344157231361,0.4659566026795251,-0.7972655415509506,-4.0,-25.375,24.3125
408.5,8.60595703125,-10.92529296875,1.953125,0.4069948423718985,0.4008911404766991,-0.8463393047883542,-3.625,-23.875,29.0625
409.0,-6.103515625,8.544921875,-6.103515625,0.2202215643787957,0.4618060853907895,-0.838038270210883,-3.625,-23.125,29.4375
409.5,-2.01416015625,-3.11279296875,-0.8544921875,0.2978606524857325,0.5018463698232978,-0.8093508713034455,-4.375,-23.5,25.875
410.0,0.0,-3.35693359375,-23.37646484375,0.2906582842493972,0.6242866298409986,-0.7352519302957243,-2.0625,-24.25,29.875
410.5,0.244140625,2.50244140625,0.48828125,0.1657765434736167,0.6101260414441358,-0.7807855464339122,-4.0,-22.75,26.625
411.0,14.2822265625,0.1220703125,5.2490234375,0.1766411328470717,0.5824152348399304,-0.7856685079500717,-3.25,-22.75,27.875
411.5,4.0283203125,13.24462890625,16.6015625,0.4030884731589709,0.3612170781579027,-0.825464644306772,-3.625,-23.5,29.0625
412.0,3.173828125,1.03759765625,-0.48828125,0.5239417706839198,0.4095583971678823,-0.7641834772789697,-0.9375,-23.875,26.625
412.5,16.17431640625,2.9296875,-25.45166015625,0.4436170537430952,0.3808709982604449,-0.8016602069154942,-1.3125,-24.625,27.875
413.0,18.798828125,10.009765625,-14.83154296875,0.4461806085390789,0.434461500900296,-0.7630848109378338,-2.5,-23.875,25.125
413.5,5.4931640625,6.8359375,-3.7841796875,0.4688863795892208,0.3104342783898434,-0.7944578386791589,2.0,-28.625,19.5625
414.0,3.47900390625,-2.74658203125,-0.67138671875,0.4607074190496536,0.3651234473708304,-0.7778557695242164,-2.5,-29.375,23.0625
414.5,2.25830078125,-0.30517578125,0.30517578125,0.4478896450697348,0.3214209418012024,-0.804345835749382,-5.1875,-29.375,21.875
415.0,-0.67138671875,1.0986328125,0.18310546875,0.4616840113528855,0.325571459089938,-0.7966551713614307,-4.75,-26.4375,21.0625
415.5,-0.1220703125,0.18310546875,0.6103515625,0.4585100863673818,0.3382671590319528,-0.7992187261574145,-5.5625,-27.125,23.875
416.0,1.03759765625,1.220703125,-0.54931640625,0.4637592699972533,0.3413190099795526,-0.7970213934751427,-3.625,-25.375,25.125
416.5,0.42724609375,0.30517578125,0.244140625,0.4637592699972533,0.3311868648335215,-0.8011719107638783,-4.75,-24.625,23.5
417.0,-0.732421875,0.244140625,-0.3662109375,0.456190679647206,0.3319193090609454,-0.8022705771050141,-5.1875,-25.0,25.125
417.5,0.06103515625,1.3427734375,-1.15966796875,0.4528946806237983,0.3346049378948332,-0.8012939848017823,-5.1875,-24.25,28.6875
418.0,2.3193359375,-1.708984375,-3.90625,0.4210333567308573,0.3562120426038392,-0.7994628742332225,-5.1875,-25.75,25.5
418.5,-9.09423828125,-0.6103515625,2.685546875,0.4408093508713034,0.3127536851100192,-0.8054445020905179,-5.1875,-25.375,25.875
419.0,-20.8740234375,-40.52734375,17.15087890625,0.4307992797631764,0.3863643299661244,-0.8188726462599567,-4.375,-23.875,25.9375
419.5,-9.82666015625,-9.521484375,-2.0751953125,0.2119205298013245,0.4157841731009857,-0.8456068605609302,-7.5,-26.75,20.3125
420.0,0.8544921875,25.2685546875,19.04296875,0.3123874629963072,0.4181035798211615,-0.7865230262153996,-2.0625,-29.75,18.3125
420.5,8.48388671875,-4.150390625,-5.06591796875,0.4358043153172399,0.3686635944700461,-0.7774895474105045,-9.3125,-29.75,19.125
421.0,10.25390625,6.16455078125,-6.7138671875,0.434949797051912,0.3873409222693563,-0.7831049531540879,-15.8125,-29.75,17.125
421.5,5.615234375,8.36181640625,-5.18798828125,0.4829248939481795,0.3062837611011078,-0.7979979857783746,-16.5625,-26.375,16.3125
422.0,3.60107421875,-5.67626953125,-5.55419921875,0.4515518662068544,0.3543809320352794,-0.7890865810113834,-18.125,-27.125,15.1875
422.5,-0.244140625,0.54931640625,-2.13623046875,0.4506973479415265,0.3548692281868953,-0.8010498367259743,-17.75,-27.125,15.1875
423.0,0.9765625,0.30517578125,-1.8310546875,0.4437391277809991,0.34766685995056,-0.8019043549913022,-16.9375,-26.75,16.3125
423.5,0.54931640625,-0.3662109375,-0.18310546875,0.4594866786706137,0.3465681936094241,-0.7925046540726951,-17.375,-28.25,18.3125
424.0,0.3662109375,-0.18310546875,-0.18310546875,0.4498428296761986,0.3432721945860164,-0.7978759117404706,-12.8125,-28.25,18.3125
424.5,-0.06103515625,0.0,0.42724609375,0.4542374950407422,0.3396099734488967,-0.7970213934751427,-1.6875,-30.875,21.5
425.0,-0.9765625,-0.48828125,1.220703125,0.4576555681020539,0.3397320474868007,-0.7982421338541825,-6.6875,-27.875,21.875
425.5,-17.15087890625,-20.6298828125,26.30615234375,0.4953764458143864,0.3353373821222571,-0.7837153233436079,-8.9375,-29.75,20.3125
426.0,-9.58251953125,-12.14599609375,0.8544921875,0.2679525131992553,0.4702291940061647,-0.8163090914639729,-8.1875,-28.625,20.3125
426.5,14.5263671875,8.6669921875,52.490234375,0.2948088015381329,0.4000366222113712,-0.7518539994506668,-0.5625,-32.3125,15.9375
427.0,-6.28662109375,-16.90673828125,16.7236328125,0.3648792992950224,0.3613391521958067,-0.8509781182287057,1.25,-33.0625,14.375
427.5,1.52587890625,0.244140625,7.99560546875,0.3524277474288155,0.3742790002136296,-0.8396252327036348,-0.5625,-30.5,21.0625
428.0,0.42724609375,2.685546875,1.46484375,0.4162724692526017,0.3490096743675039,-0.8285164952543718,-8.1875,-29.0,20.75
428.5,-0.06103515625,-3.5400390625,-2.44140625,0.390758995330668,0.3267921994689779,-0.8541520432142095,-8.1875,-30.125,21.875
429.0,1.220703125,-6.28662109375,0.1220703125,0.3685415204321421,0.3433942686239204,-0.8573259681997131,-9.6875,-28.625,19.5625
429.5,3.2958984375,9.09423828125,-5.9814453125,0.347788933988464,0.3884395886104922,-0.8419446394238106,-8.9375,-30.125,16.3125
430.0,19.83642578125,16.11328125,-34.0576171875,0.3955198828089236,0.3504745628223517,-0.8329111606189153,-9.3125,-29.375,19.5625
430.5,8.7890625,-2.50244140625,-29.6630859375,0.3330179754020813,0.3420514542069765,-0.8692892239143041,-9.3125,-29.75,20.3125
431.0,-7.14111328125,8.11767578125,17.7001953125,0.4277474288155766,0.3668324839014862,-0.9177526169621876,-8.5625,-27.875,21.875
431.5,-4.638671875,-2.685546875,5.31005859375,0.4056520279549547,0.3606067079683828,-0.8127689443647572,-3.625,-27.125,20.3125
432.0,-3.35693359375,-1.708984375,-2.197265625,0.4229865413373211,0.3718375194555497,-0.8031250953703422,-1.3125,-30.875,22.6875
432.5,-4.150390625,-11.1083984375,-19.775390625,0.3029877620777001,0.4952543717764824,-0.7832270271919919,-4.375,-30.125,21.875
433.0,-6.04248046875,-2.01416015625,-1.8310546875,0.2520828882717368,0.5743583483382672,-0.7793206579790644,-7.5,-26.375,17.5
433.5,15.625,14.70947265625,18.310546875,0.2578203680532243,0.5698416089358196,-0.7426984466078677,-8.5625,-28.625,18.75
434.0,7.568359375,-11.29150390625,28.4423828125,0.4438612018189031,0.3759880367442854,-0.8263191625721,-5.5625,-28.625,19.5625
434.5,-0.30517578125,0.42724609375,1.46484375,0.4229865413373211,0.3626819666127506,-0.8170415356913968,0.125,-33.0625,12.375
435.0,-1.77001953125,-0.8544921875,6.4697265625,0.4143192846461379,0.347300637836848,-0.8192388683736687,3.1875,-30.875,17.125
435.5,-1.40380859375,1.3427734375,0.91552734375,0.4412976470229194,0.3559678945280312,-0.8004394665364544,-7.5,-29.75,18.75
436.0,1.0986328125,-0.06103515625,0.48828125,0.4397106845301675,0.3592638935514389,-0.7956785790581988,-8.5625,-29.375,21.875
436.5,-0.30517578125,3.23486328125,-1.5869140625,0.4648579363383892,0.3574327829828791,-0.7855464339121677,-9.6875,-27.5,21.5
437.0,0.30517578125,-2.44140625,-1.220703125,0.4411755729850154,0.3664662617877743,-0.7861568041016876,-12.0,-27.5,23.5
437.5,6.34765625,-23.01025390625,-22.03369140625,0.41285439619129,0.3186132389294107,-0.8557390057069613,-10.125,-26.75,23.125
438.0,-3.5400390625,4.08935546875,-6.4697265625,0.3007904293954283,0.4157841731009857,-0.8630634479812006,-4.0,-29.375,20.3125
438.5,0.732421875,8.36181640625,7.568359375,0.3171483504745628,0.4227423932615131,-0.8034913174840541,2.0,-30.5,16.3125
439.0,-5.92041015625,14.7705078125,4.5166015625,0.4244514297921689,0.3707388531144139,-0.8098391674550615,2.375,-31.9375,16.75
439.5,-1.28173828125,1.64794921875,2.01416015625,0.445326090273751,0.4038209173863948,-0.7763908810693686,-4.75,-30.875,20.3125
440.0,-3.47900390625,-0.6103515625,0.06103515625,0.4574114200262459,0.4177373577074496,-0.7829828791161839,-7.0625,-29.375,18.3125
440.5,-4.0283203125,-9.3994140625,-21.05712890625,0.3668324839014862,0.4862208929715872,-0.7603991821039461,-8.1875,-27.5,19.5625
441.0,-3.72314453125,-3.173828125,-5.4931640625,0.2694174016541032,0.576921903134251,-0.7545396282845546,-8.5625,-29.375,20.3125
441.5,31.3720703125,11.474609375,17.15087890625,0.2580645161290322,0.5803399761955627,-0.7494125186925871,-7.5,-26.125,20.75
442.0,-1.220703125,-4.33349609375,7.75146484375,0.4226203192236091,0.3888058107242042,-0.7907956175420392,-2.5,-30.125,21.5
442.5,-2.8076171875,1.89208984375,2.01416015625,0.4591204565569017,0.3636585589159825,-0.7965330973235267,-2.0625,-30.875,21.875
443.0,-0.48828125,0.9765625,-2.50244140625,0.4463026825769829,0.3292336802270577,-0.8073976866969818,-5.5625,-26.125,22.6875
443.5,-0.06103515625,-0.244140625,0.48828125,0.4481337931455427,0.3331400494399854,-0.8076418347727897,-7.8125,-29.0,23.125
444.0,-5.4931640625,-6.7138671875,-13.671875,0.4643696401867733,0.325571459089938,-0.825586718344676,-10.5,-27.875,17.9375
444.5,-11.65771484375,-2.5634765625,-22.03369140625,0.3416852320932645,0.5409100619525742,-0.7971434675130467,-10.125,-30.5,15.5625
445.0,-6.89697265625,-2.25830078125,-4.638671875,0.2305978576006347,0.6101260414441358,-0.7641834772789697,-10.5,-27.875,23.125
445.5,14.0380859375,2.44140625,4.39453125,0.238532670064394,0.5954771568956572,-0.7102267525254067,-8.9375,-30.5,18.75
446.0,-0.48828125,-6.7138671875,7.568359375,0.4478896450697348,0.4376354258857997,-0.7928708761864071,-8.9375,-30.125,19.125
446.5,-0.1220703125,-0.30517578125,3.5400390625,0.4483779412213508,0.4260383922849208,-0.7685781426435133,-8.1875,-30.125,20.75
447.0,1.0986328125,-0.48828125,0.9765625,0.445448164311655,0.4029663991210669,-0.7793206579790644,-10.125,-27.5,19.5625
447.5,2.25830078125,0.42724609375,0.06103515625,0.4531388286996063,0.3968626972258675,-0.7782219916379284,-9.6875,-28.25,21.0625
448.0,-5.615234375,-34.36279296875,-21.728515625,0.3469344157231361,0.3886837366863002,-0.8390148625141148,-9.6875,-27.875,17.5
448.5,-4.82177734375,-0.244140625,-3.5400390625,0.3216650898770104,0.4497207556382946,-0.8312021240882596,-8.9375,-28.25,19.9375
449.0,2.13623046875,1.03759765625,4.2724609375,0.2816248054445021,0.4494766075624866,-0.8484145634327219,-7.5,-27.125,17.9375
449.5,-10.25390625,13.5498046875,6.9580078125,0.4871974852748191,0.3990600299081392,-0.7862788781395916,-8.5625,-30.125,20.75
450.0,-2.13623046875,2.9296875,0.67138671875,0.4735251930295724,0.4173711355937376,-0.7575914792321543,1.25,-30.5,19.5625
450.5,1.03759765625,1.77001953125,0.42724609375,0.4626606036561174,0.4027222510452589,-0.7622302926725059,-1.3125,-29.75,21.0625
451.0,-2.74658203125,1.708984375,0.06103515625,0.4918362987151707,0.4173711355937376,-0.7406231879634999,-5.1875,-30.125,18.3125
451.5,-0.8544921875,-0.54931640625,1.64794921875,0.4770653401287881,0.4068727683339945,-0.7473372600482192,2.0,-33.0625,15.1875
452.0,0.42724609375,-0.3662109375,-0.48828125,0.4836573381756035,0.4027222510452589,-0.7538071840571307,2.8125,-31.9375,15.5625
452.5,2.0751953125,1.46484375,-2.62451171875,0.4788964506973479,0.4093142490920743,-0.7513657032990508,-6.6875,-26.4375,19.125
453.0,4.8828125,-0.48828125,-2.99072265625,0.4859767448957793,0.4105349894711142,-0.749900814844203,-2.875,-28.625,22.6875
453.5,-0.48828125,0.8544921875,-1.3427734375,0.4745017853328043,0.4073610644856105,-0.7556382946256904,-1.3125,-28.625,23.5
454.0,3.11279296875,-2.5634765625,0.42724609375,0.4705954161198767,0.3945432905056917,-0.7632068849757377,-4.375,-27.875,22.3125
454.5,-2.01416015625,-0.3662109375,2.01416015625,0.466689046906949,0.3744010742515335,-0.7730948820459609,-2.5,-28.625,22.3125
455.0,1.28173828125,0.06103515625,-0.6103515625,0.4807275612659077,0.3901486251411481,-0.7595446638386181,-4.375,-25.375,25.875
455.5,-1.220703125,0.8544921875,-0.06103515625,0.4867091891232032,0.3681752983184301,-0.7591784417249061,-9.6875,-23.875,25.9375
456.0,-15.44189453125,-1.8310546875,-6.4697265625,0.5332193975646229,0.4190801721243934,-0.7561265907773065,-11.25,-24.625,24.3125
456.5,29.96826171875,-17.333984375,-27.52685546875,0.2703939939573351,0.5446943571275978,-0.7419660023804437,-12.0,-25.375,24.6875
457.0,3.7841796875,17.822265625,44.37255859375,0.402356028931547,0.4922025208288827,-0.770775475325785,-7.5,-30.125,17.9375
457.5,-6.89697265625,-14.2822265625,-18.73779296875,0.3712271492660298,0.4764549699392681,-0.7699209570604572,-3.625,-30.875,20.75
458.0,-7.62939453125,-2.685546875,-1.46484375,0.2368236335337382,0.631122775963622,-0.7464827417828913,0.875,-27.5,17.9375
458.5,26.55029296875,7.99560546875,17.76123046875,0.250129703665273,0.5725272377697074,-0.7679677724539934,1.625,-28.25,19.9375
459.0,13.0615234375,-7.50732421875,4.8828125,0.4503311258278146,0.4148075807977538,-0.7842036194952239,-5.5625,-26.75,21.5
459.5,-14.7705078125,-31.1279296875,-17.822265625,0.2918790246284371,0.3964964751121555,-0.8301034577471236,-8.9375,-28.625,21.0625
460.0,-2.44140625,-0.54931640625,-1.64794921875,0.30420850245674,0.4188360240485854,-0.8677022614215522,-1.3125,-31.25,17.125
460.5,-7.32421875,26.42822265625,6.34765625,0.4404431287575915,0.4061403241065706,-0.8348643452253792,1.625,-31.25,21.0625
461.0,-4.69970703125,2.5634765625,-6.89697265625,0.2966399121066927,0.3574327829828791,-0.890774254585406,3.5625,-29.375,21.5
461.5,29.296875,-5.31005859375,10.25390625,0.3288674581133457,0.228034302804651,-0.8933378093813898,-2.5,-28.25,22.3125
462.0,-8.6669921875,0.48828125,15.44189453125,0.325693533127842,0.1646778771324808,-0.890774254585406,-5.1875,-27.125,22.6875
462.5,13.12255859375,1.64794921875,-4.0283203125,0.3995483260597552,0.2126529740287484,-0.8843043305764946,0.875,-29.75,20.3125
463.0,-8.544921875,2.44140625,13.5498046875,0.3729361857966857,0.1290322580645161,-0.869655446028016,3.1875,-31.25,19.9375
463.5,-22.4609375,6.28662109375,-21.3623046875,0.3509628589739677,0.3321634571367534,-0.8570818201239051,-0.25,-31.5625,18.3125
464.0,6.77490234375,-0.18310546875,-12.87841796875,0.3092135380108035,0.4145634327219458,-0.8535416730246894,-7.5,-28.625,21.875
464.5,2.0751953125,-0.06103515625,-23.8037109375,0.3007904293954283,0.4365367595446638,-0.8298593096713156,-10.5,-28.625,22.6875
465.0,0.54931640625,2.685546875,4.0283203125,0.3064058351390118,0.4788964506973479,-0.8578142643513291,-11.25,-29.75,17.5
465.5,-5.79833984375,4.94384765625,8.544921875,0.3949095126194036,0.3498641926328318,-0.8185064241462447,-6.3125,-28.25,17.5
466.0,1.3427734375,-1.0986328125,-0.3662109375,0.4458143864253669,0.3509628589739677,-0.7915280617694632,-10.875,-27.125,21.875
466.5,-6.7138671875,-8.85009765625,-30.517578125,0.3011566515091403,0.4546037171544542,-0.7813959166234321,-12.4375,-26.125,19.5625
467.0,9.3994140625,-5.4931640625,-9.09423828125,0.2556230353709525,0.5190588091677603,-0.8097170934171575,-11.625,-25.0,23.125
467.5,-0.732421875,3.23486328125,3.5400390625,0.2199774163029877,0.5081942197943052,-0.815332499160741,-12.8125,-25.0,21.5
468.0,18.798828125,-1.15966796875,21.6064453125,0.2509842219306009,0.4043092135380108,-0.8342539750358593,-13.9375,-25.75,18.3125
468.5,-7.080078125,-6.103515625,2.3193359375,0.4525284585100864,0.3597521897030549,-0.8180181279946287,-15.8125,-23.875,18.3125
469.0,-7.32421875,-3.5400390625,-15.869140625,0.3094576860866115,0.5040437025055696,-0.8202154606769005,-15.0625,-25.0,20.75
469.5,1.708984375,1.708984375,-7.080078125,0.2082583086642048,0.5298013245033113,-0.8323007904293954,-10.875,-28.25,19.9375
470.0,-6.34765625,4.69970703125,16.29638671875,0.2125308999908444,0.4904934842982268,-0.8126468703268532,-3.25,-28.625,19.125
470.5,-3.173828125,10.43701171875,9.21630859375,0.4079714346751305,0.3109225745414594,-0.84804834131901,-4.375,-31.9375,19.9375
471.0,6.28662109375,0.8544921875,5.859375,0.5285805841242713,0.2844325083162938,-0.8669698171941282,-4.0,-31.25,19.125
471.5,-0.244140625,-0.732421875,-2.01416015625,0.4812158574175237,0.3538926358836634,-0.7892086550492874,-4.75,-30.5,17.5
472.0,4.82177734375,-12.26806640625,-9.1552734375,0.4614398632770775,0.4154179509872738,-0.8186284981841487,2.375,-31.25,14.375
472.5,3.96728515625,40.0390625,10.80322265625,0.2878505813776055,0.3889278847621082,-0.7362285225989562,3.5625,-28.625,15.9375
473.0,-5.7373046875,-10.68115234375,13.0615234375,0.500259407330546,0.2524491103854487,-0.7616199224829859,-2.0625,-29.375,17.5
473.5,-1.220703125,-10.07080078125,20.32470703125,0.4539933469649342,0.2030091250343333,-0.7917722098452712,-11.25,-27.875,17.125
474.0,1.89208984375,-0.67138671875,9.8876953125,0.5477462080751976,0.2190008239997558,-0.7801751762443923,-6.6875,-30.5,19.125
474.5,-5.18798828125,2.685546875,3.60107421875,0.5236976226081118,0.2747886593218787,-0.7514877773369548,-1.6875,-30.125,18.75
475.0,-2.74658203125,-0.48828125,3.23486328125,0.5722830896938993,0.2534257026886807,-0.7228003784295175,-0.5625,-30.875,16.75
475.5,0.9765625,-0.54931640625,0.06103515625,0.5691091647083957,0.2573320719016083,-0.7397686696981719,-3.25,-27.125,18.3125
476.0,-17.27294921875,-24.96337890625,0.48828125,0.5661793877986999,0.2226630451368755,-0.7619861445966979,-12.4375,-29.375,19.125
