time,RUPA_gyr_x,RUPA_gyr_y,RUPA_gyr_z,RUPA_acc_x,RUPA_acc_y,RUPA_acc_z,RUPA_mag_x,RUPA_mag_y,RUPA_mag_z
0.0,0.18310546875,0.0,-0.244140625,0.4621723075045015,0.7436750389110995,-0.4643696401867733,-4.125,-35.375,14.4375
0.5,-1.77001953125,-0.1220703125,0.732421875,0.4622943815424055,0.7431867427594836,-0.466811120944853,-3.4375,-34.3125,12.5
1.0,0.9765625,0.06103515625,0.06103515625,0.4614398632770775,0.7296365245521409,-0.4594866786706137,-4.8125,-33.875,11.6875
1.5,0.6103515625,-0.06103515625,-0.06103515625,0.4631488998077334,0.7364726706747643,-0.4658345286416211,-3.75,-35.8125,13.75
2.0,-0.244140625,-0.18310546875,0.0,0.4652241584521012,0.7462385937070833,-0.4620502334665975,-3.0625,-34.6875,12.9375
2.5,0.06103515625,0.244140625,-0.8544921875,0.4642475661488693,0.7342753379924924,-0.4663228247932371,-4.125,-36.9375,12.9375
3.0,0.244140625,-0.8544921875,-0.3662109375,0.4608294930875576,0.7514877773369548,-0.4589983825189977,-3.0625,-34.3125,13.3125
3.5,0.8544921875,0.30517578125,-0.1220703125,0.4620502334665975,0.7551499984740745,-0.4605853450117496,-3.4375,-34.6875,12.125
4.0,-0.79345703125,0.6103515625,-1.40380859375,0.4487441633350627,0.7445295571764275,-0.4570451979125339,-2.0,-35.0,10.875
4.5,11.8408203125,-3.90625,-3.7841796875,0.4576555681020539,0.7556382946256904,-0.4859767448957793,-3.75,-34.3125,10.5
5.0,23.49853515625,-65.73486328125,-75.5615234375,0.0231940672017578,0.749778740806299,-0.6776329844050416,15.25,-27.8125,12.5
5.5,-6.8359375,-3.5400390625,7.38525390625,-0.5770439771721549,0.4152958769493698,-0.4873195593127232,26.5625,-14.5625,6.125
6.0,20.08056640625,61.34033203125,118.0419921875,0.4184698019348735,0.8272957548753319,-0.6369823297830134,-3.4375,-35.8125,7.6875
6.5,26.55029296875,12.87841796875,2.25830078125,0.8679464094973601,0.3547471541489914,-0.3862422559282205,-22.8125,-30.125,11.6875
7.0,-1.3427734375,-30.09033203125,-26.85546875,0.86977752006592,0.3480330820642719,-0.4206671346171453,-20.375,-29.3125,11.6875
7.5,2.44140625,-20.3857421875,-59.08203125,0.1699270607623523,0.5838801232947782,-0.6327097384563738,5.0,-32.375,18.9375
8.0,-9.27734375,43.8232421875,24.2919921875,0.0327158421582689,0.6150090029602954,-0.7942136906033509,10.3125,-27.8125,16.875
8.5,-65.12451171875,-19.83642578125,-32.5927734375,-0.0529801324503311,0.6823938718832973,-0.7853022858363597,11.6875,-27.0625,17.6875
9.0,-13.427734375,18.6767578125,-1.3427734375,-0.2337717825861384,0.5882747886593219,-0.4033326212347788,20.875,-22.1875,11.3125
9.5,-9.765625,21.6064453125,57.0068359375,0.2863856929227577,0.8607440412610248,-0.5732596819971313,5.375,-35.375,9.25
10.0,2.25830078125,-2.9296875,3.47900390625,0.4035767693105869,0.7839594714194159,-0.5362712485122226,-1.3125,-34.6875,17.3125
10.5,-0.79345703125,-1.15966796875,0.244140625,0.3773308511612293,0.7348857081820124,-0.5257728812524797,-0.1875,-33.875,12.5
11.0,-8.1787109375,-24.5361328125,-10.1318359375,0.2017883846552934,0.4972075563829463,-0.7469710379345073,3.625,-28.25,22.875
11.5,31.1279296875,-50.78125,-72.81494140625,-0.3562120426038392,0.4328745384075442,-0.6128116702780236,24.4375,-14.5625,10.0625
12.0,-114.2578125,75.86669921875,140.13671875,-0.1508835108493301,0.5489669484542375,-0.3775749992370372,23.3125,-21.375,8.0625
12.5,23.74267578125,4.21142578125,2.685546875,0.3664662617877743,0.576067384868923,-0.4331186864833521,-2.6875,-35.0,13.75
13.0,-2.197265625,2.13623046875,-2.50244140625,0.4309213538010804,0.6964323862422559,-0.5492110965300455,-3.75,-33.5,14.875
13.5,1.3427734375,-0.732421875,0.30517578125,0.4297006134220404,0.6815393536179692,-0.5616626483962524,-3.0625,-35.0,16.5
14.0,-2.38037109375,-0.42724609375,0.06103515625,0.4271370586260567,0.695822016052736,-0.5680104983672597,-3.4375,-33.5,12.125
14.5,0.67138671875,-1.5869140625,-0.9765625,0.4224982451857051,0.7044892727439191,-0.5446943571275978,-2.0,-33.5,14.5
15.0,3.84521484375,0.48828125,-0.9765625,0.4185918759727774,0.6804406872768334,-0.5354167302468947,-3.4375,-33.875,15.6875
15.5,0.79345703125,-0.244140625,-1.28173828125,0.4246955778679769,0.6980193487350078,-0.5407879879146702,-1.6875,-32.8125,16.5
16.0,-14.58740234375,-27.89306640625,99.67041015625,0.6982634968108158,0.5904721213415937,-0.6148869289223914,-11.875,-33.5,10.0625
16.5,77.20947265625,67.93212890625,-7.4462890625,0.826075014496292,0.3223975341044343,-0.4919583727530747,-24.9375,-27.0625,10.0625
17.0,7.2021484375,-183.16650390625,-55.6640625,0.7668691061128574,0.2301095614490188,-0.9176305429242836,-16.125,-30.125,23.6875
17.5,1.89208984375,8.1787109375,-2.74658203125,-0.3596301156651509,0.2806482131412702,-0.7831049531540879,16.625,-25.1875,16.875
18.0,-7.14111328125,122.25341796875,2.74658203125,0.8630634479812006,0.3675649281289102,-0.914090395825068,-17.875,-28.9375,22.5
18.5,-4.150390625,-10.07080078125,-53.89404296875,0.7395245216223639,0.2921231727042451,-0.5724051637318034,-15.0625,-30.5,20.5625
19.0,-32.5927734375,-16.2353515625,-88.9892578125,0.3280129398480178,0.8017822809533982,-0.6217230750450148,2.125,-32.375,12.9375
19.5,0.79345703125,-5.0048828125,-12.75634765625,-0.2106997894222846,0.7834711752678,-0.4680318613238929,17.6875,-25.9375,13.3125
20.0,44.25048828125,15.13671875,127.50244140625,0.3103122043519394,0.771996215704825,-0.5455488753929258,6.0625,-31.25,11.6875
20.5,-28.6865234375,-18.5546875,-25.20751953125,0.8424329355754265,0.6150090029602954,-0.6401562547685171,-24.25,-28.25,14.5
21.0,-16.4794921875,29.6630859375,4.8828125,0.4193243202002014,0.6643269142735069,-0.5258949552903837,0.0625,-34.3125,12.5
21.5,-0.48828125,0.6103515625,-6.591796875,0.3667104098635823,0.793115024262215,-0.522476882229072,-0.1875,-36.5625,14.875
22.0,6.2255859375,-0.732421875,-5.0048828125,0.347911008026368,0.8080080568865017,-0.5028229621265298,-0.1875,-32.8125,13.3125
22.5,4.39453125,1.52587890625,-3.47900390625,0.3703726310007019,0.7531968138676107,-0.4876857814264351,-0.1875,-34.3125,13.3125
23.0,-7.568359375,2.197265625,-0.1220703125,0.3481551561021759,0.7828608050782799,-0.5033112582781457,0.75,-33.5,15.6875
23.5,-1.953125,-0.244140625,0.79345703125,0.337168492690817,0.7945799127170629,-0.477309488204596,-0.1875,-36.1875,14.125
24.0,0.732421875,-0.06103515625,4.33349609375,0.3914914395580919,0.7890865810113834,-0.4848780785546434,0.0625,-32.375,13.3125
24.5,-6.9580078125,-3.72314453125,0.1220703125,0.3886837366863002,0.7633289590136417,-0.4804834131900998,-0.9375,-34.3125,14.5
25.0,-1.46484375,0.1220703125,0.732421875,0.3599963377788628,0.7738273262733848,-0.5037995544297617,-2.0,-34.3125,12.9375
25.5,4.21142578125,0.79345703125,-2.0751953125,0.3618274483474227,0.7765129551072726,-0.4752342295602282,0.75,-35.0625,14.125
26.0,0.732421875,-0.79345703125,-0.91552734375,0.3681752983184301,0.7691885128330332,-0.4730368968779564,1.125,-33.875,14.125
26.5,4.150390625,-1.77001953125,0.0,0.3684194463942381,0.7921384319589831,-0.4688863795892208,-0.1875,-35.375,14.125
27.0,0.06103515625,2.01416015625,-0.9765625,0.3698843348490859,0.7627185888241218,-0.4869533371990112,-0.5625,-35.375,14.5
27.5,2.9296875,-1.46484375,-0.244140625,0.3719595934934537,0.7689443647572253,-0.4802392651142918,-0.1875,-35.8125,12.9375
28.0,-0.42724609375,-1.03759765625,-0.06103515625,0.3704947050386059,0.7762688070314646,-0.4856105227820673,-1.6875,-34.3125,14.5
28.5,0.18310546875,0.54931640625,-0.67138671875,0.3736686300241096,0.771263771477401,-0.4853663747062593,-1.3125,-34.6875,12.125
29.0,0.9765625,0.67138671875,0.244140625,0.3728141117587817,0.7697988830225532,-0.4898831141087069,-1.6875,-34.6875,13.3125
29.5,1.40380859375,-0.8544921875,0.42724609375,0.3779412213507492,0.771996215704825,-0.4907376323740348,-0.5625,-34.3125,11.3125
30.0,0.06103515625,-0.8544921875,-0.1220703125,0.3723258156071657,0.7677236243781854,-0.4856105227820673,-1.6875,-34.3125,14.875
30.5,-0.54931640625,0.3662109375,-0.54931640625,0.369029816583758,0.7740714743491928,-0.4871974852748191,2.5,-34.3125,14.5
31.0,0.1220703125,0.30517578125,-0.3662109375,0.3719595934934537,0.7728507339701529,-0.4814600054933317,-0.1875,-31.25,14.875
31.5,-0.18310546875,-0.3662109375,0.0,0.3681752983184301,0.7667470320749534,-0.478530228583636,0.0625,-34.6875,12.9375
32.0,-0.48828125,0.06103515625,-0.1220703125,0.3736686300241096,0.7799310281685843,-0.4749900814844203,1.125,-33.875,14.125
32.5,-0.8544921875,-0.1220703125,-0.30517578125,0.3744010742515335,0.7777336954863124,-0.4735251930295724,1.875,-33.875,11.3125
33.0,25.32958984375,-58.9599609375,-49.13330078125,0.2690511795403912,0.9837946714682456,-0.6397900326548052,2.875,-33.5,13.3125
33.5,-51.45263671875,15.93017578125,-24.35302734375,-0.5385906552323985,0.511490218817713,-0.5479903561510056,26.5625,-13.4375,7.6875
34.0,21.78955078125,-17.822265625,133.48388671875,-0.1989806817835017,0.6455275124362926,-0.5257728812524797,24.0625,-22.1875,8.5
34.5,44.25048828125,99.79248046875,39.24560546875,0.7837153233436079,0.532731101413007,-0.5996276741843929,-17.5,-29.75,19.3125
35.0,-93.20068359375,-85.02197265625,-77.33154296875,0.7853022858363597,0.5444502090517899,-0.5595873897518845,-20.375,-30.125,14.5
35.5,-20.5078125,28.01513671875,33.26416015625,0.3847773674733726,0.6961882381664479,-0.5521408734397412,0.0625,-32.8125,13.75
36.0,6.591796875,-5.4931640625,1.8310546875,0.4066286202581866,0.7621082186346019,-0.4934232612079226,-0.5625,-33.875,12.9375
36.5,-3.35693359375,3.47900390625,-5.55419921875,0.3944212164677877,0.760643330179754,-0.500259407330546,-1.6875,-35.375,14.125
37.0,-1.03759765625,-8.48388671875,11.8408203125,0.402111880855739,0.7426984466078677,-0.5265053254799036,-0.5625,-35.375,10.0625
37.5,-0.8544921875,-6.28662109375,-1.0986328125,0.3890499588000122,0.8021485030671102,-0.4973296304208502,-0.5625,-34.3125,12.9375
38.0,8.36181640625,-6.65283203125,10.3759765625,0.4769432660908841,0.7003387554551835,-0.5663014618366039,-3.75,-33.5,18.125
38.5,1.77001953125,0.3662109375,0.732421875,0.4365367595446638,0.663716544083987,-0.5843684194463943,-4.4375,-33.125,15.6875
39.0,-0.48828125,-1.03759765625,-1.40380859375,0.445448164311655,0.6682332834864345,-0.5859553819391461,-3.75,-32.375,17.6875
39.5,3.41796875,0.18310546875,-3.11279296875,0.4419080172124393,0.6452833643604846,-0.5782647175511948,-4.8125,-34.3125,13.75
40.0,-0.9765625,1.89208984375,-2.44140625,0.4544816431165502,0.6465041047395246,-0.5907162694174016,-5.1875,-33.125,14.125
40.5,-5.859375,-2.25830078125,-6.4697265625,0.3383892330698568,0.6264839625232703,-0.5829035309915463,-2.3125,-34.3125,19.3125
41.0,-2.01416015625,3.72314453125,-2.74658203125,0.423718985564745,0.6759239478743858,-0.5964537491988892,-3.75,-33.875,15.6875
41.5,0.8544921875,0.0,0.6103515625,0.4401989806817835,0.674336985381634,-0.5796075319681386,-4.125,-33.125,19.3125
42.0,-3.0517578125,-0.79345703125,-1.03759765625,0.4305551316873683,0.6770226142155217,-0.5627613147373882,-4.125,-32.375,17.6875
42.5,0.42724609375,-0.30517578125,-0.06103515625,0.4262825403607287,0.6788537247840816,-0.5715506454664754,-4.8125,-33.125,14.875
43.0,-0.244140625,-0.3662109375,0.30517578125,0.4303109836115604,0.6798303170873135,-0.5722830896938993,-2.6875,-34.3125,16.875
43.5,0.06103515625,-0.1220703125,0.1220703125,0.4278695028534806,0.6792199468977935,-0.5725272377697074,-3.4375,-32.8125,16.0625
44.0,0.06103515625,-0.3662109375,0.1220703125,0.4290902432325205,0.6800744651631214,-0.5741142002624592,-2.3125,-33.875,15.6875
44.5,-24.4140625,-4.33349609375,2.9296875,0.4533829767754143,0.684224982451857,-0.620014038514359,-3.4375,-32.375,15.3125
45.0,12.87841796875,-56.7626953125,-64.453125,-0.2011780144657735,0.6366161076693014,-0.5406659138767662,15.9375,-27.8125,15.6875
45.5,4.57763671875,84.5947265625,152.34375,0.2291329691457869,0.6422315134128849,-0.499404889065218,13.5,-29.75,6.9375
46.0,16.845703125,-13.48876953125,-17.88330078125,0.8244880520035401,0.3953978087710196,-0.4171269875179296,-20.375,-27.8125,12.9375
46.5,56.15234375,-107.48291015625,-82.82470703125,0.3138523514511551,0.358165227210303,-0.5858333079012421,0.0625,-28.625,20.9375
47.0,-14.6484375,64.8193359375,11.65771484375,0.1657765434736167,0.5247962889492477,-0.7566148869289224,6.375,-22.875,22.5
47.5,-34.85107421875,-3.11279296875,-27.587890625,-0.0772728659932248,0.6156193731498154,-0.5849787896359142,14.5625,-23.6875,16.0625
48.0,-2.5634765625,20.44677734375,77.2705078125,0.1547898800622577,0.8292489394817957,-0.5943784905545213,10.625,-28.25,14.875
48.5,1.40380859375,-1.46484375,-1.46484375,0.4444715720084231,0.7428205206457716,-0.6264839625232703,-3.0625,-32.0,17.3125
49.0,2.0751953125,2.74658203125,-3.7841796875,0.3764763328959014,0.6460158085879085,-0.6134220404675436,-3.75,-33.125,17.6875
49.5,0.67138671875,1.953125,1.3427734375,0.4060182500686666,0.6438184759056368,-0.6101260414441358,-2.6875,-32.0,17.6875
50.0,-1.52587890625,0.48828125,0.48828125,0.4218878749961852,0.6567583239234596,-0.6024353770561846,-3.75,-30.875,14.5
50.5,-1.40380859375,-0.54931640625,-0.9765625,0.424085207678457,0.6676229132969146,-0.587054048280282,-3.0625,-31.625,15.6875
51.0,-4.7607421875,1.0986328125,-3.90625,0.4358043153172399,0.7198706015198217,-0.5592211676381725,-3.4375,-31.25,15.6875
51.5,3.84521484375,1.64794921875,-0.6103515625,0.3932004760887478,0.6688436536759544,-0.5860774559770501,-2.0,-32.375,18.9375
52.0,-6.89697265625,0.8544921875,-0.30517578125,0.4079714346751305,0.7135227515488144,-0.5586107974486526,-3.75,-33.125,19.75
52.5,0.48828125,0.1220703125,-3.84521484375,0.413220618305002,0.7362285225989562,-0.5249183629871517,-1.6875,-33.125,15.3125
53.0,7.080078125,-2.86865234375,5.06591796875,0.4098025452436903,0.6936246833704642,-0.5487228003784295,-2.0,-32.375,15.6875
53.5,-1.3427734375,1.46484375,-0.244140625,0.4232306894131291,0.6726279488509781,-0.5923032319101535,-3.4375,-30.125,16.0625
54.0,-0.6103515625,-0.1220703125,0.18310546875,0.4204229865413373,0.6760460219122898,-0.5876644184698019,-4.125,-33.125,15.6875
54.5,-0.3662109375,0.244140625,-0.54931640625,0.4212775048066652,0.6755577257606739,-0.587176122318186,-4.125,-33.875,16.875
55.0,-0.06103515625,-0.30517578125,0.42724609375,0.4176152836695456,0.6685995056001465,-0.586321604052858,-3.75,-33.125,18.125
55.5,2.13623046875,0.42724609375,-0.42724609375,0.4196905423139134,0.6567583239234596,-0.5809503463850826,-3.0625,-30.875,17.6875
56.0,1.46484375,-0.48828125,-0.732421875,0.4207892086550492,0.6698202459791863,-0.5832697531052583,-2.3125,-32.8125,18.9375
56.5,1.52587890625,-0.30517578125,0.18310546875,0.423718985564745,0.6673787652211066,-0.5799737540818506,-3.75,-33.5,14.5
57.0,-0.48828125,-0.1220703125,-0.06103515625,0.4204229865413373,0.6706747642445143,-0.5833918271431623,-2.3125,-33.5,17.6875
57.5,0.18310546875,-0.3662109375,-0.42724609375,0.4163945432905057,0.67299417096469,-0.588030640583514,-5.5625,-33.5,16.5
58.0,-0.67138671875,-0.54931640625,0.3662109375,0.4189580980864894,0.6684774315622425,-0.5840021973326823,-2.6875,-32.375,18.5
58.5,-0.30517578125,0.18310546875,0.54931640625,0.4213995788445692,0.674336985381634,-0.5854670857875302,-4.4375,-33.875,17.6875
59.0,-0.3662109375,-0.06103515625,0.1220703125,0.4211554307687613,0.6653035065767388,-0.586931974242378,-3.4375,-31.25,17.6875
59.5,0.3662109375,-0.30517578125,-0.48828125,0.4196905423139134,0.6692098757896664,-0.5882747886593219,-3.4375,-32.0,18.5
60.0,-1.77001953125,-0.6103515625,0.30517578125,0.4196905423139134,0.6704306161687064,-0.5910824915311136,-2.3125,-33.875,18.5
60.5,-0.79345703125,-0.06103515625,0.48828125,0.4168828394421216,0.674092837305826,-0.5932798242133854,-2.3125,-33.5,18.5
61.0,-2.44140625,-0.732421875,0.0,0.4259163182470168,0.6833704641865291,-0.5859553819391461,-4.8125,-34.3125,15.3125
61.5,0.0,-0.244140625,0.18310546875,0.4259163182470168,0.685689870906705,-0.586931974242378,-3.4375,-31.625,17.6875
62.0,-1.52587890625,-0.42724609375,-0.06103515625,0.4226203192236091,0.6808069093905453,-0.5876644184698019,-4.8125,-32.0,14.875
62.5,0.18310546875,-0.06103515625,-0.48828125,0.4212775048066652,0.674581133457442,-0.5855891598254341,-4.8125,-33.125,13.75
63.0,0.48828125,0.0,-0.1220703125,0.4216437269203772,0.6750694296090579,-0.5901058992278817,-3.0625,-35.8125,14.875
63.5,-0.06103515625,-0.732421875,0.06103515625,0.4198126163518174,0.6657918027283547,-0.5891293069246498,-5.5625,-34.3125,16.0625
64.0,0.3662109375,-0.42724609375,0.1220703125,0.4216437269203772,0.6783654286324656,-0.5952330088198492,-3.4375,-32.8125,14.125
64.5,-0.42724609375,-0.48828125,0.18310546875,0.423474837488937,0.6705526902066103,-0.5888851588488418,-4.4375,-32.375,16.5
65.0,0.54931640625,-0.244140625,-0.30517578125,0.4199346903897213,0.6714072084719382,-0.5872981963560899,-4.8125,-32.8125,15.3125
65.5,0.06103515625,-0.42724609375,0.67138671875,0.4227423932615131,0.6705526902066103,-0.5891293069246498,-3.75,-34.3125,17.6875
66.0,0.6103515625,-0.9765625,1.52587890625,0.4217658009582812,0.6638386181218909,-0.5905941953794976,-5.1875,-32.375,18.5
66.5,-0.8544921875,0.0,0.3662109375,0.4206671346171453,0.6655476546525467,-0.5909604174932096,-3.75,-32.375,12.9375
67.0,-0.244140625,-0.48828125,0.06103515625,0.4221320230719931,0.674092837305826,-0.5910824915311136,-3.4375,-31.25,16.5
67.5,-0.1220703125,-0.30517578125,0.06103515625,0.4224982451857051,0.6707968382824183,-0.5874202703939939,-3.4375,-32.8125,16.125
68.0,1.03759765625,0.18310546875,-0.42724609375,0.4217658009582812,0.6667683950315867,-0.5899838251899777,-3.75,-31.25,16.0625
68.5,-1.0986328125,0.1220703125,0.0,0.4196905423139134,0.6624958037049471,-0.588030640583514,-2.6875,-34.3125,17.3125
69.0,1.3427734375,1.52587890625,-3.60107421875,0.423474837488937,0.6775109103671376,-0.5802179021576587,-4.8125,-30.875,16.5
69.5,0.6103515625,-0.244140625,-1.28173828125,0.4154179509872738,0.6798303170873135,-0.5818048646504105,-3.0625,-33.5,16.5
70.0,1.708984375,-0.30517578125,-0.67138671875,0.4150517288735618,0.6593218787194434,-0.5849787896359142,-3.4375,-32.8125,18.125
70.5,-1.52587890625,-0.48828125,-0.06103515625,0.4204229865413373,0.662984099856563,-0.586565752128666,-4.4375,-33.125,20.5625
71.0,1.708984375,0.06103515625,0.3662109375,0.4213995788445692,0.6766563921018097,-0.5963316751609852,-3.4375,-31.625,14.875
71.5,-1.5869140625,0.67138671875,2.99072265625,0.4260383922849208,0.6642048402356029,-0.6029236732078005,-2.0,-32.8125,16.875
72.0,0.30517578125,-0.42724609375,0.8544921875,0.4283577990050966,0.6651814325388348,-0.5882747886593219,-3.75,-32.8125,16.5
72.5,-0.30517578125,-0.1220703125,-0.30517578125,0.422864467299417,0.6368602557451094,-0.586321604052858,-5.5625,-32.375,17.3125
73.0,-1.28173828125,-0.8544921875,-0.6103515625,0.4248176519058809,0.6511429181798761,-0.5931577501754814,-4.125,-32.375,16.875
73.5,0.3662109375,-0.3662109375,-0.06103515625,0.4248176519058809,0.6577349162266914,-0.5963316751609852,-4.4375,-30.5,16.5
74.0,-0.244140625,-0.18310546875,-0.3662109375,0.4266487624744407,0.6638386181218909,-0.5893734550004578,-5.1875,-31.25,16.5
74.5,-0.3662109375,0.0,-0.18310546875,0.4246955778679769,0.6573686941129795,-0.5890072328867458,-3.0625,-33.125,13.3125
75.0,-1.15966796875,-0.48828125,0.06103515625,0.4281136509292886,0.6642048402356029,-0.5953550828577532,-5.5625,-34.3125,14.875
75.5,0.06103515625,-0.54931640625,0.0,0.4301889095736564,0.6593218787194434,-0.5891293069246498,-3.0625,-32.375,18.5
76.0,-2.74658203125,0.67138671875,-0.6103515625,0.4292123172704245,0.6675008392590106,-0.576799829096347,-2.6875,-32.375,14.5
76.5,-0.54931640625,0.42724609375,-0.91552734375,0.423352763451033,0.6751915036469619,-0.5904721213415937,-2.0,-30.5,15.3125
77.0,0.1220703125,0.06103515625,-0.18310546875,0.412732322153386,0.6700643940549944,-0.5931577501754814,-5.1875,-35.0625,12.9375
77.5,-0.42724609375,-0.30517578125,0.0,0.412610248115482,0.6673787652211066,-0.5854670857875302,-2.0,-34.3125,15.3125
78.0,0.18310546875,0.0,0.0,0.4183477278969695,0.6725058748130741,-0.5821710867641224,-4.4375,-32.375,19.3125
78.5,-0.67138671875,-0.42724609375,0.30517578125,0.4166386913663136,0.6649372844630268,-0.5827814569536424,-5.875,-32.375,14.875
79.0,0.18310546875,-0.18310546875,-0.8544921875,0.4213995788445692,0.6748252815332499,-0.5830256050294503,-4.125,-32.375,19.3125
79.5,-0.732421875,-0.48828125,0.48828125,0.4199346903897213,0.6773888363292336,-0.5844904934842983,-3.4375,-30.875,19.75
80.0,0.91552734375,-0.18310546875,-0.8544921875,0.4083376567888424,0.6601763969847713,-0.586443678090762,-2.0,-32.375,15.6875
80.5,-0.67138671875,-0.3662109375,0.06103515625,0.4168828394421216,0.6748252815332499,-0.5841242713705863,-2.0,-31.625,17.6875
81.0,-0.30517578125,-0.244140625,0.06103515625,0.412610248115482,0.6690878017517624,-0.58668782616657,-3.75,-34.6875,13.75
81.5,0.6103515625,-0.06103515625,-0.18310546875,0.4157841731009857,0.6800744651631214,-0.5909604174932096,-1.6875,-32.375,18.9375
82.0,-0.18310546875,-0.3662109375,-0.18310546875,0.4166386913663136,0.6788537247840816,-0.5818048646504105,-4.125,-32.375,18.125
82.5,-0.9765625,-0.244140625,0.6103515625,0.4198126163518174,0.6801965392010254,-0.5855891598254341,-2.6875,-33.5,16.0625
83.0,0.732421875,-0.18310546875,-0.3662109375,0.4182256538590655,0.6815393536179692,-0.5840021973326823,-3.4375,-32.8125,18.5
83.5,1.64794921875,0.06103515625,-0.6103515625,0.4167607654042176,0.6661580248420668,-0.5832697531052583,-3.4375,-33.125,19.3125
84.0,-0.244140625,-0.244140625,0.0,0.4152958769493698,0.6682332834864345,-0.5832697531052583,-2.3125,-33.125,16.5
84.5,5.55419921875,-23.0712890625,-9.27734375,0.3957640308847316,0.7567369609668264,-0.6903286843470565,-5.1875,-32.375,16.5
85.0,-31.25,13.5498046875,-47.66845703125,-0.2080141605883968,0.6712851344340343,-0.6067079683828241,17.0,-25.9375,10.875
85.5,27.40478515625,25.7568359375,162.109375,0.4513077181310465,0.7987304300057985,-0.5050202948088015,10.625,-28.9375,12.125
86.0,-63.720703125,-77.5146484375,-72.69287109375,0.8218024231696524,0.6562700277718436,-0.6295358134708701,-20.0,-28.9375,11.6875
86.5,3.96728515625,9.09423828125,14.22119140625,0.4412976470229194,0.8221686452833643,-0.6334421826837977,-0.1875,-34.6875,12.9375
87.0,6.16455078125,-3.47900390625,1.03759765625,0.4002807702871792,0.6899624622333446,-0.5793633838923307,-3.0625,-33.125,16.0625
87.5,-0.244140625,-0.1220703125,-1.0986328125,0.402356028931547,0.6935026093325602,-0.5741142002624592,-3.0625,-32.375,15.3125
88.0,2.9296875,-1.8310546875,0.91552734375,0.41224402600177,0.7260963774529252,-0.5487228003784295,-2.6875,-32.0,16.0625
88.5,-1.77001953125,-0.67138671875,0.30517578125,0.3892941068758201,0.728782006286813,-0.5427411725211341,-1.3125,-34.3125,15.6875
89.0,0.244140625,-7.01904296875,6.7138671875,0.4549699392681661,0.7113254188665425,-0.587054048280282,-3.4375,-35.0625,14.125
89.5,0.1220703125,-0.6103515625,-0.3662109375,0.4104129154332102,0.6750694296090579,-0.587176122318186,-3.75,-32.8125,18.125
90.0,0.6103515625,-0.42724609375,0.91552734375,0.4183477278969695,0.6781212805566577,-0.5820490127262185,-3.0625,-33.5,14.5
90.5,-0.6103515625,-0.9765625,-0.54931640625,0.4152958769493698,0.685689870906705,-0.5908383434553056,-4.8125,-32.8125,16.875
91.0,-3.41796875,-1.46484375,1.953125,0.4091921750541704,0.6722617267372661,-0.5966978972746971,-3.4375,-33.5,17.6875
91.5,0.30517578125,0.1220703125,-0.54931640625,0.4104129154332102,0.6609088412121952,-0.5842463454084903,-3.75,-32.375,13.3125
92.0,-0.30517578125,-0.18310546875,-0.9765625,0.4243293557542649,0.6754356517227699,-0.5831476790673543,-3.0625,-33.875,16.5
92.5,1.953125,-0.244140625,-0.3662109375,0.4227423932615131,0.6704306161687064,-0.5841242713705863,-5.5625,-32.375,17.3125
93.0,-3.173828125,2.62451171875,-1.40380859375,0.4144413586840418,0.6781212805566577,-0.5793633838923307,-2.6875,-32.8125,20.5625
93.5,1.8310546875,-1.64794921875,1.77001953125,0.4177373577074496,0.6529740287484359,-0.5957213049714651,-3.75,-32.8125,14.875
94.0,-1.28173828125,0.244140625,-0.18310546875,0.4306772057252723,0.6642048402356029,-0.5848567155980102,-5.875,-32.8125,17.3125
94.5,0.732421875,-1.03759765625,-0.42724609375,0.4261604663228248,0.673238319040498,-0.5831476790673543,-3.0625,-33.875,15.6875
95.0,2.3193359375,-0.67138671875,0.79345703125,0.4257942442091128,0.673116245002594,-0.5894955290383618,-4.125,-33.125,18.9375
95.5,0.244140625,-0.91552734375,-0.48828125,0.4283577990050966,0.6598101748710593,-0.5883968626972259,-2.6875,-33.5,15.3125
96.0,-0.244140625,-0.3662109375,-0.18310546875,0.4244514297921689,0.6605426190984832,-0.5953550828577532,-4.4375,-32.0,17.3125
96.5,0.3662109375,-0.30517578125,-0.18310546875,0.4211554307687613,0.6548051393169958,-0.5940122684408093,-3.75,-32.375,17.6875
97.0,0.30517578125,-0.732421875,0.30517578125,0.4282357249671926,0.6587115085299234,-0.5947447126682333,-3.4375,-33.125,19.3125
97.5,0.1220703125,-0.3662109375,-0.06103515625,0.4251838740195929,0.6599322489089633,-0.5948667867061372,-4.125,-32.8125,16.875
98.0,-0.1220703125,-0.1220703125,-0.1220703125,0.423963133640553,0.6682332834864345,-0.5958433790093692,-3.75,-34.3125,15.6875
98.5,0.30517578125,-0.3662109375,-0.06103515625,0.4256721701712088,0.663350321970275,-0.597674489577929,-5.1875,-30.5,15.6875
99.0,-0.42724609375,-0.244140625,-0.244140625,0.422864467299417,0.6612750633259071,-0.6009704886013367,-3.75,-32.8125,15.6875
99.5,1.46484375,-0.48828125,0.0,0.4264046143986327,0.6596881008331553,-0.5968199713126011,-4.8125,-32.0,15.6875
100.0,-0.1220703125,-0.48828125,-0.06103515625,0.4218878749961852,0.6511429181798761,-0.5990173039948729,-4.125,-32.8125,15.3125
100.5,-1.220703125,0.0,0.48828125,0.4213995788445692,0.6617633594775231,-0.5998718222602009,-5.5625,-32.8125,18.125
101.0,1.03759765625,-1.46484375,-2.38037109375,0.4256721701712088,0.6624958037049471,-0.6037781914731285,-3.75,-33.875,19.75
101.5,-1.220703125,-0.8544921875,-0.18310546875,0.4185918759727774,0.652119510483108,-0.6029236732078005,-3.0625,-32.0,20.9375
102.0,-0.6103515625,1.40380859375,-1.8310546875,0.4172490615558336,0.6624958037049471,-0.5997497482222969,-3.0625,-33.5,15.6875
102.5,-1.15966796875,0.42724609375,0.48828125,0.4378795739616077,0.6573686941129795,-0.586321604052858,-5.875,-33.875,15.3125
103.0,1.52587890625,-2.685546875,1.3427734375,0.4310434278389843,0.6694540238654744,-0.5881527146214179,-4.125,-33.5,18.9375
103.5,-3.5400390625,0.30517578125,-1.46484375,0.4288460951567125,0.6899624622333446,-0.5822931608020264,-3.4375,-33.5,15.6875
104.0,5.31005859375,-2.197265625,3.0517578125,0.4222540971098971,0.6425977355265968,-0.6229438154240546,-4.125,-32.8125,16.875
104.5,-0.244140625,0.18310546875,-0.79345703125,0.422864467299417,0.6352732932523576,-0.6148869289223914,-4.125,-31.25,18.125
105.0,-5.0048828125,3.47900390625,-4.0283203125,0.4104129154332102,0.6579790643024994,-0.5904721213415937,-4.8125,-32.0,16.5
105.5,20.6298828125,-16.9677734375,57.06787109375,0.5012359996337779,0.5295571764275033,-0.565202795495468,-3.0625,-33.875,16.125
106.0,28.3203125,8.60595703125,-23.92578125,0.9420453505050812,0.3657338175603503,-0.2649006622516556,-22.125,-30.125,9.6875
106.5,-1.89208984375,-8.7890625,-68.359375,0.3765984069338053,0.369518112735374,-0.3874629963072603,-13.25,-32.375,12.125
107.0,8.36181640625,2.74658203125,-2.9296875,0.3824579607531968,0.6345408490249336,-0.5488448744163335,-2.6875,-32.375,16.5
107.5,-3.0517578125,0.79345703125,-4.82177734375,0.423474837488937,0.6679891354106265,-0.5992614520706808,-3.4375,-31.25,14.5
108.0,0.6103515625,2.8076171875,1.15966796875,0.4320200201422162,0.7169408246101261,-0.5771660512100589,-2.6875,-34.3125,13.75
108.5,1.28173828125,-0.06103515625,-0.48828125,0.4205450605792413,0.6681112094485305,-0.5820490127262185,-4.125,-32.375,15.3125
109.0,-1.52587890625,0.0,1.3427734375,0.4148075807977538,0.6754356517227699,-0.5966978972746971,-3.75,-32.375,14.125
109.5,6.16455078125,0.42724609375,1.15966796875,0.4211554307687613,0.6439405499435408,-0.5840021973326823,-4.125,-35.8125,15.3125
110.0,0.244140625,-0.18310546875,-0.06103515625,0.4171269875179296,0.6654255806146427,-0.597674489577929,-4.4375,-34.3125,14.125
110.5,0.18310546875,0.3662109375,0.06103515625,0.4174932096316416,0.6621295815912351,-0.5955992309335612,-3.0625,-34.3125,15.3125
111.0,0.0,0.48828125,-0.06103515625,0.4160283211767937,0.6672566911832026,-0.5902279732657857,-4.125,-33.125,17.3125
111.5,1.03759765625,-0.06103515625,0.18310546875,0.4201788384655293,0.6602984710226752,-0.5891293069246498,-3.0625,-32.0,18.5
112.0,0.42724609375,0.244140625,0.06103515625,0.4157841731009857,0.6624958037049471,-0.5930356761375775,-4.125,-33.125,14.875
112.5,-1.03759765625,-0.06103515625,0.6103515625,0.4155400250251778,0.6645710623493148,-0.5965758232367931,-2.6875,-33.5,16.875
113.0,0.0,-0.48828125,0.06103515625,0.4145634327219458,0.663594470046083,-0.5962096011230812,-5.1875,-34.3125,14.875
113.5,0.06103515625,0.0,-0.18310546875,0.4156620990630817,0.663350321970275,-0.5943784905545213,-4.8125,-32.0,16.0625
114.0,-0.3662109375,-0.244140625,0.244140625,0.4160283211767937,0.6682332834864345,-0.5960875270851772,-3.75,-32.0,19.3125
114.5,0.0,-0.06103515625,-0.06103515625,0.4150517288735618,0.6609088412121952,-0.5960875270851772,-4.125,-32.8125,16.875
115.0,0.48828125,-0.30517578125,0.3662109375,0.4178594317453535,0.6673787652211066,-0.5953550828577532,-4.8125,-31.625,17.3125
115.5,0.79345703125,0.3662109375,-0.06103515625,0.4160283211767937,0.6656697286904507,-0.5951109347819452,-3.75,-34.3125,17.6875
116.0,0.67138671875,0.18310546875,0.1220703125,0.4152958769493698,0.6640827661976989,-0.5932798242133854,-2.3125,-32.8125,16.0625
116.5,6.53076171875,-2.685546875,84.3505859375,0.729026154362621,0.608661152989288,-0.5228431043427839,-6.9375,-34.6875,12.5
117.0,1.5869140625,-8.1787109375,-11.16943359375,0.902005066072573,0.3618274483474227,-0.4304330576494644,-23.5,-27.4375,14.125
117.5,-17.88330078125,-26.18408203125,-107.5439453125,0.3381450849940489,0.7112033448286386,-0.4080935087130344,-7.3125,-30.5,15.3125
118.0,20.44677734375,-9.8876953125,88.37890625,0.1245155186620685,0.69594409009064,-0.4848780785546434,13.5,-29.75,12.125
118.5,4.0283203125,-20.6298828125,-63.53759765625,0.7134006775109104,0.6369823297830134,-0.4675435651722769,-13.25,-31.25,13.75
119.0,11.71875,3.23486328125,5.06591796875,0.4151738029114658,0.7246314889980774,-0.532486953337199,-4.8125,-35.375,10.5
119.5,2.62451171875,-3.47900390625,2.86865234375,0.4000366222113712,0.6792199468977935,-0.5946226386303293,-5.5625,-35.0625,15.3125
120.0,-3.35693359375,1.89208984375,-4.7607421875,0.4152958769493698,0.6887417218543046,-0.5936460463270974,-3.75,-33.125,16.5
120.5,44.00634765625,-68.66455078125,-78.55224609375,0.3407086397900326,0.9145786919766838,-0.7329325235755486,-1.6875,-32.8125,16.0625
121.0,5.55419921875,0.54931640625,-13.85498046875,-0.358165227210303,0.3432721945860164,-0.6621295815912351,19.8125,-18.0,16.125
121.5,-1.953125,-0.3662109375,25.45166015625,0.3955198828089236,0.8357188634907071,-0.5184484389782403,7.125,-30.875,16.5
122.0,10.80322265625,2.01416015625,-10.986328125,0.4409314249092074,0.7215796380504776,-0.4707174901577807,-5.1875,-33.5,13.75
122.5,4.0283203125,-5.0048828125,3.11279296875,0.4332407605212561,0.6438184759056368,-0.5749687185277871,-3.0625,-33.875,12.9375
123.0,0.3662109375,-1.953125,0.91552734375,0.423596911526841,0.6545609912411878,-0.5909604174932096,-4.8125,-32.8125,17.3125
123.5,1.40380859375,0.8544921875,-1.5869140625,0.4317758720664083,0.663594470046083,-0.5847346415601062,-2.6875,-35.8125,16.5
124.0,0.3662109375,0.91552734375,0.54931640625,0.4329966124454482,0.6714072084719382,-0.5786309396649068,-4.125,-33.875,15.6875
124.5,1.40380859375,0.6103515625,1.89208984375,0.4428846095156712,0.6568803979613635,-0.5938901944029054,-3.0625,-35.8125,14.875
125.0,0.91552734375,-0.06103515625,0.79345703125,0.4432508316293832,0.6493118076113162,-0.5955992309335612,-4.8125,-32.8125,15.6875
125.5,-0.91552734375,0.30517578125,-0.91552734375,0.4419080172124393,0.6461378826258125,-0.5903500473036897,-4.125,-30.125,17.3125
126.0,0.244140625,-0.244140625,-0.6103515625,0.4366588335825678,0.6462599566637165,-0.5954771568956572,-3.0625,-32.0,14.5
126.5,0.6103515625,1.03759765625,-3.5400390625,0.4393444624164556,0.663594470046083,-0.5876644184698019,-5.5625,-30.125,16.875
127.0,0.79345703125,-0.30517578125,-0.30517578125,0.4316537980285043,0.6661580248420668,-0.5842463454084903,-2.0,-33.5,16.5
127.5,-0.3662109375,0.0,-0.18310546875,0.4369029816583758,0.6748252815332499,-0.5750907925656911,-4.4375,-35.0625,16.875
128.0,-0.9765625,-0.244140625,1.0986328125,0.4329966124454482,0.663106173894467,-0.575334940641499,-4.125,-31.25,17.6875
128.5,1.40380859375,-1.220703125,0.54931640625,0.4427625354777673,0.6694540238654744,-0.5730155339213233,-5.875,-32.375,14.875
129.0,2.25830078125,1.15966796875,1.220703125,0.4415417950987274,0.6582232123783074,-0.5937681203650014,-4.125,-32.375,15.3125
129.5,1.3427734375,-0.244140625,0.0,0.4380016479995117,0.6566362498855556,-0.5832697531052583,-4.4375,-33.125,16.875
130.0,-1.8310546875,-0.42724609375,0.54931640625,0.4392223883785516,0.6510208441419721,-0.5851008636738182,-4.8125,-32.8125,16.0625
130.5,-2.0751953125,0.0,0.0,0.4481337931455427,0.6548051393169958,-0.586931974242378,-2.6875,-30.875,16.875
131.0,-0.91552734375,-0.18310546875,-0.244140625,0.4447157200842311,0.6556596575823237,-0.575701162755211,-3.75,-31.25,17.6875
131.5,0.3662109375,-0.67138671875,-0.30517578125,0.4431287575914792,0.6611529892880031,-0.5809503463850826,-4.125,-33.875,16.875
132.0,-0.1220703125,-0.42724609375,0.0,0.4376354258857997,0.6567583239234596,-0.5858333079012421,-5.1875,-32.8125,19.75
132.5,-0.48828125,-0.8544921875,-0.244140625,0.4417859431745353,0.6754356517227699,-0.5844904934842983,-3.0625,-32.375,16.0625
133.0,-0.06103515625,-0.06103515625,-0.18310546875,0.4405652027954955,0.6577349162266914,-0.586809900204474,-4.4375,-31.625,20.5625
133.5,-0.244140625,-0.30517578125,0.18310546875,0.4404431287575915,0.6567583239234596,-0.5852229377117222,-4.8125,-33.125,16.875
134.0,0.18310546875,-0.1220703125,-0.42724609375,0.4375133518478957,0.6568803979613635,-0.5836359752189703,-2.3125,-32.8125,15.3125
134.5,1.40380859375,0.42724609375,0.244140625,0.445570238349559,0.6604205450605792,-0.5782647175511948,-3.4375,-32.8125,17.3125
135.0,1.28173828125,-0.30517578125,-0.244140625,0.4411755729850154,0.663228247932371,-0.5840021973326823,-4.125,-31.625,16.0625
135.5,0.42724609375,-0.1220703125,-0.30517578125,0.4399548326059755,0.663228247932371,-0.5835139011810663,-3.4375,-32.8125,17.6875
136.0,0.1220703125,-0.244140625,-0.18310546875,0.4387340922269356,0.6599322489089633,-0.5875423444318979,-2.6875,-32.8125,14.5
136.5,-0.244140625,-0.67138671875,0.18310546875,0.4386120181890316,0.6581011383404034,-0.5847346415601062,-3.75,-32.0,16.875
137.0,1.03759765625,-0.42724609375,0.0,0.4400769066438795,0.6549272133548998,-0.5831476790673543,-5.1875,-31.625,16.0625
137.5,-0.30517578125,-0.1220703125,-0.3662109375,0.4378795739616077,0.662984099856563,-0.5825373088778344,-3.4375,-32.8125,15.6875
138.0,0.0,-0.3662109375,0.18310546875,0.4411755729850154,0.6528519547105319,-0.5770439771721549,-5.1875,-34.3125,15.3125
138.5,-1.40380859375,-0.30517578125,0.1220703125,0.4401989806817835,0.6565141758476516,-0.5854670857875302,-3.4375,-34.3125,20.5625
139.0,5.7373046875,-26.42822265625,-28.25927734375,0.4105349894711142,0.7947019867549668,-0.6487014374217963,-3.4375,-34.6875,14.125
139.5,7.568359375,-21.728515625,-78.43017578125,-0.2913907284768212,0.5341959898678549,-0.5422528763695181,12.4375,-28.9375,14.875
140.0,14.22119140625,50.23193359375,169.49462890625,0.249519333475753,0.7076631977294229,-0.5450605792413099,21.9375,-18.0,10.875
140.5,23.74267578125,2.0751953125,1.15966796875,0.8893093661305582,0.4288460951567125,-0.4837794122135075,-13.25,-31.625,13.3125
141.0,9.58251953125,-14.34326171875,-85.3271484375,0.3200781273842585,0.532731101413007,-0.4149296548356578,-14.0,-32.0,14.125
141.5,19.22607421875,-8.30078125,5.06591796875,0.3739127780999176,0.5793633838923307,-0.5687429425946837,-2.3125,-34.3125,14.875
142.0,2.197265625,-1.708984375,-0.48828125,0.3789178136539811,0.6267281105990783,-0.6496780297250282,-3.4375,-33.5,16.875
142.5,-1.220703125,0.1220703125,-0.1220703125,0.3773308511612293,0.6513870662556841,-0.6372264778588214,-2.3125,-31.25,19.3125
143.0,-0.732421875,4.94384765625,-3.2958984375,0.3814813684499649,0.6906949064607685,-0.6394238105410932,-4.125,-32.8125,19.3125
143.5,-2.8076171875,1.0986328125,-5.18798828125,0.379650257881405,0.7044892727439191,-0.6015808587908567,-0.9375,-33.875,14.5
144.0,33.14208984375,-21.6064453125,-17.39501953125,0.2288888210699789,0.6865443891720329,-0.695699942014832,0.375,-30.875,17.6875
144.5,35.33935546875,-40.283203125,-52.1240234375,-0.1535691396832178,0.3022553178502762,-0.7939695425275429,10.3125,-24.0625,23.6875
145.0,-76.72119140625,81.0546875,149.5361328125,0.3994262520218512,0.6937467574083682,-0.5781426435132908,19.8125,-17.25,22.9375
145.5,6.16455078125,-9.46044921875,-1.40380859375,0.8998077333903012,0.3609729300820948,-0.3758659627063814,-20.0,-32.375,8.0625
146.0,-2.685546875,-1.953125,-84.228515625,0.3615833002716147,0.4516739402447584,-0.434827723014008,-17.125,-32.375,13.3125
146.5,3.35693359375,2.44140625,-4.150390625,0.4276253547776726,0.6434522537919248,-0.6229438154240546,-2.6875,-33.5,15.3125
147.0,-1.77001953125,0.1220703125,0.06103515625,0.4140751365703299,0.6445509201330607,-0.6251411481063265,-4.8125,-33.125,16.0625
147.5,-0.06103515625,-0.244140625,-0.1220703125,0.4157841731009857,0.6416211432233649,-0.6219672231208228,-4.8125,-32.0,18.9375
148.0,-2.685546875,3.72314453125,-4.150390625,0.3856318857387005,0.6508987701040682,-0.63136692403943,-3.75,-32.0,17.3125
148.5,0.1220703125,-0.48828125,0.1220703125,0.4079714346751305,0.7115695669423505,-0.5705740531632435,-3.75,-33.875,18.5
149.0,-0.732421875,0.48828125,-0.30517578125,0.4049195837275307,0.6869106112857448,-0.5793633838923307,-4.8125,-33.125,17.3125
149.5,-7.75146484375,5.7373046875,-8.23974609375,0.3984496597186193,0.7313455610827967,-0.5416425061799982,-1.6875,-33.5,13.3125
150.0,14.5263671875,-8.97216796875,13.00048828125,0.4415417950987274,0.7759025849177527,-0.4869533371990112,-2.6875,-34.6875,11.3125
150.5,-4.0283203125,2.9296875,-2.01416015625,0.4206671346171453,0.6770226142155217,-0.5556810205389568,-4.4375,-34.6875,11.3125
151.0,-14.09912109375,9.6435546875,-67.626953125,0.2320627460554826,0.8185064241462447,-0.5044099246192816,-1.3125,-33.125,14.125
151.5,1.28173828125,-6.53076171875,-30.6396484375,-0.2236396374401074,0.8011719107638783,-0.4408093508713034,13.4375,-29.3125,10.0625
152.0,32.53173828125,3.11279296875,109.7412109375,0.075563829462569,0.7470931119724112,-0.5300454725791193,21.5625,-22.5625,12.5
152.5,29.60205078125,82.58056640625,41.80908203125,0.8413342692342906,0.5359050263985107,-0.5037995544297617,-6.5625,-33.125,16.0625
153.0,4.08935546875,-73.1201171875,-24.658203125,0.8624530777916807,0.4653462324900052,-0.6765343180639057,-23.125,-29.3125,16.0625
153.5,1.220703125,13.671875,-2.50244140625,0.2252265999328593,0.3746452223273415,-0.7475814081240272,-5.5625,-28.9375,24.5
154.0,-14.95361328125,45.8984375,-36.9873046875,0.6418652912991729,0.641254921109653,-0.7623523667104098,-4.8125,-29.3125,22.875
154.5,-16.66259765625,2.685546875,31.18896484375,0.4570451979125339,0.8093508713034455,-0.620014038514359,-4.125,-32.8125,12.9375
155.0,2.8076171875,-0.48828125,0.0,0.4218878749961852,0.6725058748130741,-0.5648365733817561,-3.4375,-34.6875,14.875
155.5,0.732421875,-0.8544921875,-0.3662109375,0.4277474288155766,0.6870326853236488,-0.575945310831019,-5.1875,-34.6875,17.6875
156.0,0.79345703125,-0.244140625,0.1220703125,0.4314096499526963,0.6804406872768334,-0.576433606982635,-3.4375,-33.875,12.9375
156.5,0.18310546875,-0.244140625,0.48828125,0.4351939451277199,0.673848689230018,-0.5720389416180913,-3.0625,-33.875,15.6875
157.0,0.91552734375,-0.732421875,-0.18310546875,0.434461500900296,0.674459059419538,-0.576555681020539,-4.8125,-32.0,17.6875
157.5,0.48828125,-0.18310546875,-0.3662109375,0.4264046143986327,0.6667683950315867,-0.5798516800439466,-4.8125,-32.8125,16.5
158.0,0.3662109375,-0.30517578125,-0.244140625,0.4304330576494644,0.67360454115421,-0.5781426435132908,-3.75,-33.5,16.0625
158.5,0.91552734375,-0.30517578125,0.1220703125,0.4288460951567125,0.6725058748130741,-0.575701162755211,-3.4375,-33.875,16.0625
159.0,0.3662109375,-0.244140625,-0.30517578125,0.4314096499526963,0.6700643940549944,-0.5810724204229866,-2.6875,-34.3125,16.875
159.5,-0.1220703125,-0.30517578125,0.0,0.4316537980285043,0.6659138767662587,-0.5732596819971313,-3.75,-34.6875,15.6875
160.0,-0.30517578125,-0.244140625,0.30517578125,0.434705648976104,0.6685995056001465,-0.5771660512100589,-3.0625,-33.5,13.75
160.5,0.79345703125,-0.6103515625,-0.3662109375,0.4309213538010804,0.6657918027283547,-0.5775322733237709,-4.4375,-33.125,15.3125
161.0,-0.54931640625,-0.30517578125,-0.244140625,0.4303109836115604,0.6705526902066103,-0.5807061983092746,-4.4375,-32.0,13.75
161.5,-0.30517578125,-0.42724609375,0.0,0.434339426862392,0.6711630603961303,-0.5807061983092746,-2.6875,-33.875,14.5
162.0,0.30517578125,-0.3662109375,0.1220703125,0.4312875759147923,0.6696981719412823,-0.5811944944608906,-5.875,-33.125,17.3125
162.5,-0.3662109375,-0.42724609375,0.1220703125,0.4320200201422162,0.662862025818659,-0.5791192358165227,-5.5625,-32.8125,15.6875
163.0,0.3662109375,-0.30517578125,-0.244140625,0.4315317239906003,0.6656697286904507,-0.5792413098544267,-3.75,-34.6875,16.875
163.5,-0.54931640625,-0.54931640625,-0.18310546875,0.435071871089816,0.6710409863582263,-0.576921903134251,-2.3125,-32.8125,16.5
164.0,-1.28173828125,-0.244140625,0.48828125,0.4326303903317362,0.6694540238654744,-0.5793633838923307,-3.0625,-34.3125,16.5
164.5,-0.244140625,-0.06103515625,0.18310546875,0.434827723014008,0.6672566911832026,-0.5798516800439466,-3.4375,-33.125,16.5
165.0,-5.4931640625,3.2958984375,-3.2958984375,0.4438612018189031,0.67299417096469,-0.5789971617786187,-3.0625,-31.25,16.875
165.5,34.24072265625,31.6162109375,71.2890625,0.7152317880794702,0.4536271248512222,-0.3814813684499649,-6.9375,-34.3125,14.125
166.0,3.7841796875,-38.6962890625,-160.46142578125,0.727561265907773,0.8038575395977661,-0.5233314004943999,-22.125,-27.8125,12.5
166.5,-1.3427734375,1.8310546875,56.70166015625,0.064821314127018,0.6422315134128849,-0.4304330576494644,8.1875,-29.3125,15.6875
167.0,31.67724609375,-6.8359375,-17.15087890625,0.5017242957853938,0.7949461348307749,-0.4398327585680715,0.0625,-33.875,13.75
167.5,2.01416015625,-3.5400390625,-0.91552734375,0.4074831385235145,0.7619861445966979,-0.532242805261391,-3.4375,-32.8125,12.9375
168.0,4.08935546875,1.3427734375,-0.67138671875,0.3791619617297891,0.7621082186346019,-0.5022125919370098,-2.0,-35.0625,13.75
168.5,5.06591796875,-1.03759765625,-1.03759765625,0.4167607654042176,0.7231666005432295,-0.5339518417920469,-2.6875,-36.1875,11.3125
169.0,-1.03759765625,-1.0986328125,-0.3662109375,0.4211554307687613,0.7203588976714377,-0.5267494735557116,-2.0,-31.25,12.5
169.5,0.1220703125,0.30517578125,0.06103515625,0.4212775048066652,0.7204809717093417,-0.5421308023316141,-4.8125,-31.25,18.125
170.0,0.8544921875,-1.15966796875,1.46484375,0.4149296548356578,0.7033906064027833,-0.5409100619525742,-2.0,-33.5,14.125
170.5,-0.8544921875,0.06103515625,-0.732421875,0.4290902432325205,0.6969206823938718,-0.533585619678335,-3.0625,-33.5,14.125
171.0,0.54931640625,-3.0517578125,5.06591796875,0.4295785393841365,0.6850795007171849,-0.5553147984252449,-4.4375,-33.875,14.125
171.5,0.9765625,0.79345703125,-2.01416015625,0.4250617999816889,0.7090060121463668,-0.5455488753929258,-4.4375,-33.125,17.6875
172.0,-0.18310546875,-0.1220703125,-0.06103515625,0.4242072817163609,0.706930753501999,-0.5393230994598224,-5.5625,-32.375,15.3125
172.5,-0.18310546875,-0.54931640625,0.3662109375,0.4189580980864894,0.6967986083559679,-0.5392010254219184,-4.125,-32.375,15.6875
173.0,-0.30517578125,-0.732421875,0.18310546875,0.4276253547776726,0.7123020111697744,-0.5515305032502212,-3.4375,-33.5,14.125
173.5,-0.54931640625,-0.8544921875,0.06103515625,0.4271370586260567,0.7104709006012146,-0.5424970244453261,-4.125,-33.5,15.6875
174.0,-0.79345703125,0.244140625,-0.18310546875,0.423352763451033,0.7019257179479355,-0.54322946867275,-3.4375,-34.6875,13.3125
174.5,0.18310546875,-0.06103515625,0.244140625,0.4261604663228248,0.7036347544785913,-0.5362712485122226,-2.0,-33.5,14.125
175.0,0.732421875,-0.42724609375,-0.30517578125,0.4221320230719931,0.695699942014832,-0.54322946867275,-5.875,-33.125,16.0625
175.5,0.18310546875,-1.15966796875,0.8544921875,0.4287240211188086,0.7002166814172796,-0.5462813196203498,-3.4375,-32.375,14.875
176.0,-0.67138671875,-0.244140625,-0.30517578125,0.4271370586260567,0.6989959410382397,-0.5521408734397412,-4.125,-32.375,18.5
176.5,-0.67138671875,-0.244140625,-0.06103515625,0.4267708365123447,0.7013153477584155,-0.5481124301889095,-3.0625,-33.875,13.75
177.0,2.3193359375,0.1220703125,-0.42724609375,0.4194463942381054,0.6964323862422559,-0.5456709494308298,-5.5625,-32.0,13.75
177.5,0.54931640625,-0.67138671875,0.18310546875,0.4266487624744407,0.695211645863216,-0.5505539109469894,-2.3125,-33.875,14.5
178.0,1.15966796875,-0.30517578125,-0.8544921875,0.4281136509292886,0.7018036439100315,-0.5475020599993896,-6.5625,-32.8125,14.5
178.5,0.0,-0.18310546875,-0.6103515625,0.4323862422559282,0.7031464583269753,-0.5470137638477737,-3.0625,-33.125,14.875
179.0,0.79345703125,0.0,-0.79345703125,0.4289681691946165,0.6939909054841762,-0.5516525772881252,-2.6875,-33.875,18.125
179.5,-1.89208984375,-0.48828125,0.3662109375,0.424085207678457,0.6897183141575366,-0.5466475417340617,-4.8125,-34.3125,14.125
180.0,-0.48828125,0.06103515625,-0.18310546875,0.4282357249671926,0.6993621631519517,-0.5476241340372936,-5.875,-35.375,14.5
180.5,-0.244140625,-0.18310546875,-0.1220703125,0.4283577990050966,0.6947233497116001,-0.5511642811365093,-3.75,-34.3125,13.75
181.0,0.1220703125,-0.244140625,-0.1220703125,0.4295785393841365,0.695455793939024,-0.5490890224921415,-4.4375,-35.375,16.5
181.5,0.18310546875,-0.244140625,0.0,0.4303109836115604,0.6980193487350078,-0.5529953917050692,-3.75,-34.3125,13.3125
182.0,-0.18310546875,-0.3662109375,-0.18310546875,0.4264046143986327,0.6944792016357921,-0.5521408734397412,-3.0625,-33.875,13.3125
182.5,0.06103515625,-0.244140625,-0.1220703125,0.4266487624744407,0.6927701651051362,-0.5537278359324931,-2.3125,-31.25,12.5
183.0,1.0986328125,-0.18310546875,-0.3662109375,0.4266487624744407,0.6917935728019043,-0.5492110965300455,-3.0625,-32.8125,16.5
183.5,0.30517578125,-0.30517578125,0.0,0.4271370586260567,0.6966765343180639,-0.5531174657429732,-4.125,-32.8125,16.5
184.0,0.0,-0.18310546875,-0.1220703125,0.4255500961333048,0.6982634968108158,-0.5534836878566851,-4.125,-34.3125,12.9375
184.5,0.0,-0.1220703125,-0.30517578125,0.4242072817163609,0.69594409009064,-0.5559251686147648,-2.0,-32.375,12.5
185.0,-0.91552734375,0.42724609375,-0.3662109375,0.4259163182470168,0.6891079439680166,-0.5506759849848933,-3.4375,-32.8125,13.75
185.5,-0.244140625,1.77001953125,-1.46484375,0.4200567644276253,0.7124240852076784,-0.5282143620105594,-4.4375,-34.3125,17.3125
186.0,0.9765625,-0.67138671875,-0.1220703125,0.4244514297921689,0.7112033448286386,-0.5378582110049746,-4.4375,-34.3125,15.3125
186.5,-0.79345703125,-0.3662109375,0.42724609375,0.4265266884365367,0.7048554948576311,-0.543717764824366,-3.0625,-35.0625,15.25
187.0,-0.42724609375,-0.06103515625,0.06103515625,0.4260383922849208,0.7027802362132634,-0.5439619129001739,-4.125,-32.8125,14.875
187.5,1.52587890625,1.15966796875,-4.08935546875,0.4315317239906003,0.7225562303537095,-0.520767845698416,-5.1875,-32.8125,18.5
188.0,-1.0986328125,-0.732421875,0.06103515625,0.4213995788445692,0.7024140140995514,-0.532609027375103,-1.6875,-33.5,15.25
188.5,0.9765625,-0.3662109375,-0.42724609375,0.4244514297921689,0.706930753501999,-0.5294351023895993,-3.75,-35.8125,14.875
189.0,-0.1220703125,-0.42724609375,0.6103515625,0.4220099490340891,0.7030243842890713,-0.5395672475356303,-4.125,-34.3125,14.125
189.5,-0.54931640625,-0.244140625,-0.06103515625,0.4220099490340891,0.7057100131229591,-0.5338297677541429,-4.125,-32.375,14.875
190.0,-0.79345703125,-1.15966796875,1.77001953125,0.4227423932615131,0.706320383312479,-0.5396893215735343,-5.1875,-34.3125,14.125
190.5,-3.72314453125,-6.77490234375,-37.2314453125,0.4152958769493698,0.82570879238258,-0.5748466444898831,-5.1875,-33.5,16.5
191.0,1.46484375,-11.90185546875,2.9296875,-0.2675862910855434,0.5586107974486526,-0.5407879879146702,9.625,-33.125,14.5
191.5,30.33447265625,109.9853515625,106.75048828125,0.7352519302957243,0.6501663258766441,-0.7025360881374554,17.0,-26.375,12.9375
192.0,7.38525390625,-1.89208984375,-7.4462890625,0.9145786919766838,0.2597735526596881,-0.4135868404187139,-22.125,-27.4375,14.125
192.5,-49.6826171875,-12.3291015625,-103.33251953125,0.3824579607531968,0.6727500228888821,-0.4950102237006744,-17.125,-28.625,20.9375
193.0,-1.3427734375,-1.28173828125,39.306640625,0.1279335917233802,0.8038575395977661,-0.4812158574175237,7.5,-31.25,14.875
193.5,-0.48828125,-0.1220703125,13.61083984375,0.4464247566148869,0.8816187017426069,-0.4764549699392681,2.5,-35.0,11.3125
194.0,0.30517578125,-1.220703125,1.953125,0.4087038789025544,0.7486800744651632,-0.4804834131900998,-3.0625,-36.1875,16.0625
194.5,-6.28662109375,3.23486328125,-4.150390625,0.401989806817835,0.7641834772789697,-0.4699850459303568,-0.9375,-34.3125,14.5
195.0,-6.16455078125,7.080078125,-8.056640625,0.3537705618457594,0.76113162633137,-0.4621723075045015,-2.3125,-33.875,13.3125
195.5,9.6435546875,-7.75146484375,2.86865234375,0.4171269875179296,0.7844477675710319,-0.4629047517319254,-0.1875,-34.3125,12.125
196.0,-1.708984375,0.0,-0.244140625,0.3997924741355632,0.7409894100772119,-0.4793847468489638,-0.9375,-33.875,16.0625
196.5,-0.30517578125,-0.42724609375,-0.3662109375,0.4030884731589709,0.7640614032410658,-0.4804834131900998,-3.0625,-36.5625,16.0625
197.0,-0.48828125,0.67138671875,-2.50244140625,0.4072389904477065,0.7513657032990508,-0.4902493362224189,-2.3125,-34.6875,11.6875
197.5,-0.06103515625,-0.6103515625,-0.6103515625,0.4072389904477065,0.7663808099612415,-0.4760887478255562,-2.6875,-32.8125,14.5
198.0,0.54931640625,0.67138671875,-2.25830078125,0.4028443250831629,0.7621082186346019,-0.4553361613818781,-2.3125,-34.6875,12.5
198.5,-7.9345703125,89.599609375,107.36083984375,0.8325449385052034,0.4651020844141972,-0.3873409222693563,-4.8125,-34.6875,11.3125
199.0,-6.89697265625,-34.85107421875,-133.11767578125,0.6609088412121952,0.7457502975554674,-0.5907162694174016,-24.9375,-27.8125,14.875
199.5,-0.48828125,-2.50244140625,-0.1220703125,-0.217169713431196,0.7358623004852443,-0.5277260658589434,8.1875,-32.0,17.3125
200.0,50.84228515625,38.330078125,115.3564453125,0.4963530381176183,0.76113162633137,-0.5691091647083957,17.3125,-23.6875,13.75
200.5,-17.822265625,10.07080078125,31.43310546875,0.9161656544694358,0.2688070314645833,-0.4050416577654347,-11.5,-30.875,19.3125
201.0,-5.0048828125,-129.45556640625,-68.05419921875,0.4681539353617969,0.3392437513351848,-0.6679891354106265,-24.625,-26.375,15.25
201.5,2.50244140625,98.44970703125,55.60302734375,0.4227423932615131,0.478286080507828,-0.761375774407178,3.625,-33.125,17.3125
202.0,-17.76123046875,-70.1904296875,-80.078125,0.7746818445387127,0.521256141850032,-0.5526291695913571,-16.5,-29.75,16.5
202.5,1.220703125,24.35302734375,24.90234375,0.511368144779809,0.804834131900998,-0.6143986327707754,-7.3125,-33.5,11.6875
203.0,4.33349609375,-0.67138671875,0.18310546875,0.3984496597186193,0.7509994811853389,-0.4973296304208502,-3.4375,-34.6875,14.875
203.5,0.3662109375,-0.79345703125,1.03759765625,0.4091921750541704,0.7433088167973876,-0.500015259254738,-2.3125,-33.125,13.75
204.0,3.173828125,-1.953125,0.67138671875,0.4227423932615131,0.7265846736045412,-0.52211066011536,-2.6875,-33.875,12.125
204.5,1.03759765625,-2.44140625,-0.732421875,0.4144413586840418,0.7225562303537095,-0.5256508072145757,-2.6875,-31.25,12.9375
205.0,0.42724609375,-1.5869140625,0.42724609375,0.4425183874019593,0.695699942014832,-0.5409100619525742,-5.1875,-33.875,13.75
205.5,-3.173828125,3.84521484375,-3.90625,0.4436170537430952,0.6941129795220802,-0.5156407361064486,-2.3125,-33.5,12.9375
206.0,14.2822265625,14.70947265625,-25.634765625,0.3569444868312632,0.6212347788933988,-0.5881527146214179,-2.6875,-33.875,12.9375
206.5,4.150390625,0.8544921875,-2.44140625,0.3208105716116824,0.6618854335154271,-0.6386913663136693,0.0625,-31.25,22.875
207.0,1.28173828125,-2.44140625,-3.60107421875,0.3350932340464492,0.6878872035889767,-0.6638386181218909,0.375,-30.125,22.5
207.5,-0.8544921875,1.0986328125,-2.9296875,0.3189794610431226,0.6582232123783074,-0.6319772942289499,2.875,-27.0625,24.5
208.0,0.18310546875,-0.1220703125,-2.3193359375,0.3274025696584979,0.6355174413281656,-0.6288033692434462,0.375,-29.75,20.9375
208.5,3.90625,0.244140625,-0.244140625,0.3100680562761315,0.6924039429914243,-0.6679891354106265,0.75,-28.9375,21.6875
209.0,-8.6669921875,1.5869140625,-0.42724609375,0.3444929349650563,0.7191381572923978,-0.6078066347239601,1.125,-28.625,19.3125
209.5,6.40869140625,0.0,-5.859375,0.3297219763786737,0.6859340189825129,-0.6108584856715598,-0.5625,-31.25,24.125
210.0,11.474609375,-9.94873046875,9.521484375,0.3396099734488967,0.6584673604541155,-0.6267281105990783,0.0625,-30.5,21.6875
210.5,-0.48828125,-2.5634765625,-0.42724609375,0.3226416821802423,0.6494338816492202,-0.6714072084719382,2.875,-29.3125,21.375
211.0,-0.79345703125,0.8544921875,-0.48828125,0.3176366466261788,0.6548051393169958,-0.6530961027863399,3.25,-29.3125,20.5625
211.5,-7.32421875,0.0,0.9765625,0.3188573870052186,0.6328318124942778,-0.6576128421887875,1.875,-28.625,22.875
212.0,3.41796875,0.6103515625,-1.953125,0.3281350138859218,0.6814172795800653,-0.6541947691274758,1.875,-29.75,23.3125
212.5,-23.37646484375,4.57763671875,2.01416015625,0.3122653889584033,0.7445295571764275,-0.6555375835444197,0.75,-30.875,23.75
213.0,0.0,1.03759765625,-0.54931640625,0.3005462813196203,0.6488235114597003,-0.6548051393169958,0.375,-31.25,22.125
213.5,-3.173828125,-1.52587890625,-0.3662109375,0.3164159062471389,0.6576128421887875,-0.6704306161687064,0.375,-28.9375,23.3125
214.0,-30.517578125,2.86865234375,5.55419921875,0.2939542832728049,0.6696981719412823,-0.6538285470137638,1.125,-30.875,22.5
214.5,-1.64794921875,-1.52587890625,1.03759765625,0.3081148716696676,0.6584673604541155,-0.6352732932523576,1.5,-29.3125,18.125
215.0,-5.7373046875,1.64794921875,1.28173828125,0.3004242072817163,0.6530961027863399,-0.652119510483108,2.125,-29.3125,21.6875
215.5,6.28662109375,-9.58251953125,-1.28173828125,0.3115329447309793,0.7226783043916135,-0.6236762596514787,0.0625,-29.3125,19.75
216.0,5.43212890625,-0.67138671875,-0.244140625,0.3189794610431226,0.6323435163426618,-0.6498001037629322,1.125,-29.3125,18.9375
216.5,2.5634765625,4.638671875,-7.14111328125,0.303842280343028,0.685689870906705,-0.6336863307596057,2.5,-28.25,21.375
217.0,-5.615234375,0.8544921875,-2.3193359375,0.3405865657521286,0.7588122196111942,-0.5936460463270974,1.125,-30.5,20.9375
217.5,1.03759765625,0.48828125,-2.13623046875,0.325083162938322,0.67360454115421,-0.6362498855555895,1.875,-30.125,22.125
218.0,0.1220703125,2.74658203125,-2.13623046875,0.3117770928067873,0.6618854335154271,-0.6333201086458937,2.125,-28.25,21.6875
218.5,-0.244140625,-0.18310546875,-0.6103515625,0.3225196081423383,0.6722617267372661,-0.6528519547105319,2.125,-29.3125,19.75
219.0,-7.14111328125,0.1220703125,-0.06103515625,0.3180028687398907,0.7119357890560625,-0.5948667867061372,1.125,-28.9375,21.375
219.5,-9.82666015625,-1.5869140625,-1.15966796875,0.3136082033753471,0.6505325479903562,-0.6361278115176855,1.875,-30.125,19.3125
220.0,6.53076171875,-0.18310546875,-0.3662109375,0.3111667226172673,0.6850795007171849,-0.6266060365611743,1.5,-30.125,19.75
220.5,-26.55029296875,-16.17431640625,15.380859375,0.3625598925748466,0.6767784661397137,-0.7230445265053255,0.75,-29.3125,21.6875
221.0,-100.15869140625,88.80615234375,130.4931640625,0.4970854823450422,0.6328318124942778,-0.34766685995056,3.625,-30.5,20.9375
221.5,26.67236328125,-100.830078125,-96.13037109375,0.7195043794061098,0.5571459089938048,-0.5996276741843929,-15.375,-33.5,9.6875
222.0,4.69970703125,39.1845703125,20.99609375,0.4217658009582812,0.6863002410962249,-0.8056886501663258,-0.9375,-31.25,21.6875
222.5,9.765625,2.3193359375,-2.99072265625,0.3702505569627979,0.6978972746971038,-0.6335642567217017,0.75,-30.5,19.75
223.0,3.90625,0.1220703125,-1.8310546875,0.3658558915982543,0.6489455854976043,-0.6406445509201331,0.0625,-30.5,18.9375
223.5,-0.42724609375,0.3662109375,0.06103515625,0.3604846339304788,0.6469924008911405,-0.6432081057161169,-0.9375,-30.875,21.6875
224.0,-1.8310546875,-0.9765625,0.732421875,0.3541367839594714,0.6447950682088687,-0.6385692922757652,1.125,-31.625,20.5625
224.5,-8.60595703125,-0.48828125,4.2724609375,0.3383892330698568,0.662862025818659,-0.6555375835444197,0.0625,-30.875,21.375
225.0,5.18798828125,-0.244140625,-2.5634765625,0.3637806329538865,0.7415997802667318,-0.5378582110049746,0.375,-29.3125,20.5625
225.5,3.662109375,0.06103515625,-2.01416015625,0.3520615253151036,0.6374706259346293,-0.6373485518967253,0.375,-28.9375,24.125
226.0,6.4697265625,12.3291015625,-9.70458984375,0.3614612262337107,0.652119510483108,-0.6609088412121952,1.125,-30.5,24.125
226.5,-11.8408203125,-13.85498046875,28.564453125,0.3757438886684774,0.618549150059511,-0.6212347788933988,1.5,-28.25,20.5625
227.0,25.69580078125,0.54931640625,-13.916015625,0.3647572252571184,0.6560258796960357,-0.6241645558030946,-0.9375,-32.375,20.125
227.5,-6.8359375,-0.79345703125,21.66748046875,0.3707388531144139,0.5145420697653127,-0.6272164067506943,0.375,-29.75,25.3125
228.0,7.568359375,-8.60595703125,3.2958984375,0.4372692037720878,0.6710409863582263,-0.5672780541398358,-4.8125,-32.375,18.9375
228.5,-6.103515625,3.23486328125,-6.9580078125,0.4276253547776726,0.6566362498855556,-0.5551927243873409,-3.0625,-34.3125,16.0625
229.0,-1.40380859375,0.6103515625,-3.35693359375,0.4257942442091128,0.6803186132389294,-0.5597094637897885,-2.3125,-33.875,16.5
229.5,1.03759765625,-1.46484375,1.64794921875,0.4209112826929533,0.6948454237495041,-0.5445722830896939,-4.125,-33.125,18.9375
230.0,-0.06103515625,-0.8544921875,0.18310546875,0.4226203192236091,0.6878872035889767,-0.565080721457564,-4.4375,-32.8125,15.6875
230.5,0.30517578125,-0.48828125,-0.06103515625,0.4248176519058809,0.6875209814752647,-0.5597094637897885,-4.4375,-32.0,14.125
231.0,-0.18310546875,-0.91552734375,0.48828125,0.4167607654042176,0.6817835016937773,-0.5670339060640278,-4.4375,-33.5,18.5
231.5,-0.9765625,-0.91552734375,0.67138671875,0.4261604663228248,0.6832483901486252,-0.5691091647083957,-3.75,-32.8125,18.5
232.0,0.79345703125,-0.42724609375,0.0,0.423352763451033,0.685811944944609,-0.575823236793115,-3.4375,-33.125,19.75
232.5,-0.42724609375,-0.3662109375,-0.06103515625,0.423718985564745,0.6773888363292336,-0.5719168675801873,-3.75,-33.5,16.875
233.0,0.8544921875,0.42724609375,-0.8544921875,0.4198126163518174,0.6808069093905453,-0.5730155339213233,-4.125,-32.0,16.0625
233.5,3.173828125,-0.8544921875,0.6103515625,0.423596911526841,0.6876430555131687,-0.576677755058443,-4.4375,-33.5,15.25
234.0,5.0048828125,0.67138671875,-2.0751953125,0.423718985564745,0.6544389172032838,-0.5691091647083957,-2.3125,-33.875,17.3125
234.5,15.2587890625,-33.69140625,-76.35498046875,0.2844325083162938,0.8432874538407544,-0.6001159703360088,-2.6875,-33.875,17.3125
235.0,-2.13623046875,-20.56884765625,-9.27734375,-0.3493758964812158,0.5890072328867458,-0.532242805261391,10.625,-29.3125,18.5
235.5,46.44775390625,56.2744140625,201.96533203125,0.6345408490249336,0.5576342051454207,-0.5714285714285714,23.6875,-18.75,13.3125
236.0,0.9765625,22.94921875,11.71875,0.9314249092074344,0.1920224616229743,-0.3602404858546708,-14.0,-31.625,16.875
236.5,16.54052734375,-174.9267578125,-50.537109375,0.6362498855555895,0.1229285561693167,-0.7342753379924924,-26.6875,-25.9375,12.125
237.0,-33.50830078125,32.71484375,10.80322265625,-0.3347270119327372,0.3178807947019867,-0.586931974242378,5.375,-25.1875,21.6875
237.5,-13.916015625,109.86328125,31.92138671875,0.7469710379345073,0.6593218787194434,-0.7356181524094363,12.75,-28.9375,20.5625
238.0,-30.09033203125,-53.7109375,-123.47412109375,0.2417065950498977,0.7850581377605518,-0.8127689443647572,-14.6875,-27.8125,18.5
238.5,1.708984375,-2.74658203125,15.5029296875,-0.4758445997497482,0.4847560045167394,-0.5479903561510056,16.3125,-25.9375,13.3125
239.0,97.35107421875,70.61767578125,196.2890625,0.5005035554063539,0.3286233100375377,-0.9000518814661091,23.6875,-18.75,8.875
239.5,15.2587890625,-38.6962890625,-106.93359375,0.8884548478652302,0.3814813684499649,-0.6865443891720329,-12.25,-27.4375,22.5
240.0,12.20703125,19.4091796875,-4.5166015625,0.3444929349650563,0.5804620502334666,-0.5517746513260292,-14.6875,-29.3125,16.5
240.5,-3.173828125,-15.44189453125,22.15576171875,0.3986938077944273,0.618671224097415,-0.5861995300149541,-0.9375,-33.875,12.125
241.0,10.986328125,-9.09423828125,-19.59228515625,0.0689718314157536,0.4326303903317362,-0.8392590105899228,-3.0625,-32.375,20.5625
241.5,-0.732421875,-3.72314453125,-1.220703125,0.0928983428449354,0.4024781029694509,-0.8604998931852168,10.3125,-19.875,24.9375
242.0,-2.50244140625,-3.2958984375,11.23046875,0.3789178136539811,0.6559038056581317,-0.717429120761742,7.125,-24.8125,26.125
242.5,-8.11767578125,-1.8310546875,-1.0986328125,0.3858760338145085,0.5970641193884091,-0.7136448255867184,-3.0625,-31.625,20.125
243.0,-0.244140625,-0.8544921875,0.18310546875,0.3841669972838527,0.5793633838923307,-0.6772667622913296,-2.3125,-29.75,18.5
243.5,-0.9765625,-0.79345703125,0.6103515625,0.3770867030854213,0.5927915280617695,-0.685689870906705,-2.3125,-30.875,20.125
244.0,-0.1220703125,-0.48828125,0.67138671875,0.3773308511612293,0.5931577501754814,-0.684591204565569,-4.8125,-28.9375,18.9375
244.5,1.03759765625,0.0,-0.244140625,0.3746452223273415,0.597430341502121,-0.6937467574083682,-2.6875,-30.125,19.75
245.0,0.18310546875,-0.3662109375,0.06103515625,0.3709830011902219,0.5921811578722496,-0.6927701651051362,-4.125,-31.25,17.6875
245.5,0.42724609375,0.18310546875,-0.67138671875,0.3733024079103976,0.5947447126682333,-0.6882534257026887,-4.125,-32.0,20.125
246.0,2.13623046875,-2.01416015625,1.5869140625,0.3698843348490859,0.5793633838923307,-0.6893520920438245,-3.4375,-31.25,20.125
246.5,0.67138671875,-0.244140625,0.42724609375,0.3776970732749412,0.5930356761375775,-0.6972869045075838,-3.0625,-30.125,19.3125
247.0,0.67138671875,-0.1220703125,-0.1220703125,0.380016479995117,0.5885189367351299,-0.6882534257026887,-2.3125,-32.8125,17.6875
247.5,-0.30517578125,-0.18310546875,0.18310546875,0.3765984069338053,0.586321604052858,-0.6947233497116001,-3.4375,-31.25,18.5
248.0,-1.0986328125,-0.1220703125,0.18310546875,0.3785515915402692,0.586931974242378,-0.6893520920438245,-3.4375,-30.875,20.5625
248.5,4.39453125,1.03759765625,-0.8544921875,0.3728141117587817,0.5818048646504105,-0.6905728324228645,-4.125,-29.75,19.75
249.0,0.1220703125,-1.89208984375,1.03759765625,0.3866084780419324,0.5860774559770501,-0.6905728324228645,-3.4375,-32.0,18.125
249.5,0.18310546875,-0.8544921875,-0.1220703125,0.3839228492080447,0.5781426435132908,-0.6971648304696798,-4.4375,-30.5,18.5
250.0,-0.1220703125,-0.54931640625,0.06103515625,0.3863643299661244,0.5725272377697074,-0.7029023102511673,-5.5625,-32.375,20.125
250.5,-0.18310546875,-0.18310546875,0.06103515625,0.3808709982604449,0.5816827906125065,-0.7008270516067995,-3.4375,-30.125,19.3125
251.0,-0.8544921875,-0.18310546875,0.244140625,0.3791619617297891,0.5816827906125065,-0.7050996429334391,-4.8125,-29.75,20.5625
251.5,0.3662109375,0.0,0.1220703125,0.3770867030854213,0.5738700521866512,-0.6975310525833919,-3.75,-31.25,19.75
252.0,-1.0986328125,0.18310546875,-0.42724609375,0.3753776665547654,0.5787530137028107,-0.7007049775688955,-3.0625,-31.25,19.75
252.5,0.18310546875,-1.28173828125,1.953125,0.3761101107821894,0.5820490127262185,-0.7033906064027833,-4.4375,-28.9375,18.125
253.0,-0.6103515625,-0.30517578125,0.0,0.3786736655781731,0.5808282723471786,-0.7010711996826074,-3.75,-30.125,20.125
253.5,0.9765625,-0.3662109375,-0.18310546875,0.3828241828669088,0.5794854579302346,-0.6985076448866238,-3.4375,-30.5,21.6875
254.0,1.46484375,-0.1220703125,-0.3662109375,0.3814813684499649,0.576311532944731,-0.7052217169713432,-4.125,-31.25,19.3125
254.5,-2.25830078125,0.06103515625,-0.06103515625,0.3791619617297891,0.5776543473616749,-0.7022919400616474,-4.8125,-30.5,17.6875
255.0,-1.8310546875,-0.3662109375,0.79345703125,0.3833124790185247,0.5805841242713706,-0.7035126804406873,-3.4375,-30.5,20.125
255.5,-1.0986328125,-1.0986328125,0.6103515625,0.3836787011322367,0.5857112338633381,-0.7093722342600788,-3.75,-29.3125,18.9375
256.0,14.70947265625,23.8037109375,-43.5791015625,0.3722037415692618,0.5726493118076114,-0.7685781426435133,-3.0625,-33.125,20.5625
256.5,-2.44140625,1.03759765625,0.9765625,0.3458357493820002,0.5829035309915463,-0.7220679342020936,-0.5625,-28.625,21.6875
257.0,0.8544921875,0.91552734375,4.21142578125,0.3621936704611346,0.5824152348399304,-0.7081514938810388,-1.3125,-27.8125,24.125
257.5,5.55419921875,-19.53125,17.2119140625,0.4277474288155766,0.6666463209936827,-0.6456495864741966,0.0625,-29.3125,22.5
258.0,5.55419921875,12.20703125,-31.43310546875,0.3707388531144139,0.5415204321420942,-0.7008270516067995,-6.5625,-32.0,20.9375
258.5,-3.84521484375,0.3662109375,-0.30517578125,0.3398541215247047,0.575457014679403,-0.6916714987640004,-1.3125,-30.125,22.5
259.0,-1.03759765625,-14.09912109375,15.13671875,0.4068727683339945,0.6159855952635274,-0.6762901699880978,-4.125,-30.5,21.375
259.5,0.1220703125,-0.06103515625,-0.6103515625,0.3880733664967803,0.5715506454664754,-0.7018036439100315,-3.75,-32.0,21.6875
260.0,0.244140625,0.0,0.67138671875,0.3905148472548601,0.5750907925656911,-0.6974089785454879,-5.1875,-31.625,21.6875
260.5,-0.8544921875,0.18310546875,0.18310546875,0.3885616626483962,0.5720389416180913,-0.6997283852656636,-5.5625,-30.5,20.125
261.0,1.40380859375,-0.42724609375,-0.244140625,0.3918576616718039,0.5692312387462997,-0.7044892727439191,-3.75,-32.0,17.6875
261.5,0.732421875,-0.1220703125,-0.18310546875,0.3842890713217566,0.5632496108890042,-0.7027802362132634,-3.75,-30.875,18.5
262.0,0.06103515625,-0.1220703125,0.1220703125,0.3885616626483962,0.5684987945188757,-0.7044892727439191,-2.3125,-31.25,20.125
262.5,0.79345703125,-0.244140625,-0.06103515625,0.3942991424298837,0.5645924253059481,-0.7030243842890713,-4.4375,-31.25,17.6875
263.0,0.30517578125,-0.54931640625,0.06103515625,0.3892941068758201,0.5667897579882198,-0.706442457350383,-4.8125,-29.75,18.9375
263.5,1.77001953125,0.1220703125,-0.3662109375,0.3874629963072603,0.5595873897518845,-0.6971648304696798,-3.4375,-30.5,21.6875
264.0,1.03759765625,1.64794921875,1.77001953125,0.3928342539750358,0.5815607165746025,-0.7207251197851496,-3.4375,-31.25,19.3125
264.5,-0.9765625,-0.30517578125,0.0,0.3978392895290994,0.5533616138187811,-0.7217017120883816,-4.4375,-29.3125,18.5
265.0,-9.033203125,-31.55517578125,-41.93115234375,0.3508407849360637,0.7545396282845546,-0.7599108859523301,-4.125,-30.5,20.9375
265.5,-10.92529296875,-9.521484375,-23.681640625,-0.2782067323831904,0.5935239722891934,-0.652241584521012,4.25,-30.875,21.375
266.0,-27.7099609375,66.71142578125,209.04541015625,0.5990173039948729,0.8863795892208625,-0.4705954161198767,21.1875,-20.6875,14.875
266.5,3.90625,-8.97216796875,-1.03759765625,0.8976104007080294,0.2636799218726157,-0.3575548570207831,-11.5,-35.375,10.5
267.0,47.9736328125,-134.21630859375,-95.39794921875,0.6671346171452986,0.4200567644276253,-0.7623523667104098,-24.25,-29.3125,10.5
267.5,21.17919921875,-29.1748046875,-25.20751953125,-0.227912228766747,0.2835779900509659,-0.8868678853724784,-0.5625,-28.25,24.125
268.0,9.70458984375,102.60009765625,44.00634765625,0.7883541367839595,0.3639027069917905,-0.7196264534440138,16.625,-19.125,20.5625
268.5,-32.1044921875,1.220703125,16.845703125,0.9055452131717888,0.1148716696676534,-0.3812372203741569,-20.0,-26.75,19.3125
269.0,-49.8046875,-7.75146484375,29.11376953125,0.923368022705771,0.2658772545548875,-0.2993255409405804,-26.375,-24.875,15.3125
269.5,-4.638671875,-2.9296875,8.4228515625,0.8678243354594561,0.2072817163609729,-0.4044312875759148,-31.25,-27.4375,7.6875
270.0,6.40869140625,1.28173828125,-6.34765625,0.8938261055330058,0.2143620105594043,-0.3773308511612293,-30.9375,-24.0625,0.125
270.5,51.69677734375,-134.82666015625,-102.1728515625,0.5580004272591327,0.4185918759727774,-0.8666035950804163,-30.9375,-23.3125,-0.5625
271.0,-4.8828125,-60.9130859375,21.05712890625,-0.2977385784478286,0.2329172643208105,-0.9212927640614031,-6.25,-28.25,22.875
271.5,-25.7568359375,52.001953125,31.18896484375,-0.3679311502426221,0.1586962492751853,-0.6639606921597949,9.25,-25.9375,22.875
272.0,25.634765625,65.49072265625,82.82470703125,0.7514877773369548,0.1331827753532517,-0.9497360148930326,2.5,-29.3125,20.125
272.5,-0.18310546875,2.9296875,0.06103515625,0.7643055513168737,-0.0493179113132114,-0.6250190740684225,-29.1875,-24.4375,11.6875
273.0,1.708984375,-3.2958984375,-3.84521484375,0.8006836146122623,-0.0067140720847193,-0.5946226386303293,-31.25,-18.75,7.25
273.5,-35.21728515625,-35.82763671875,-19.71435546875,0.6103701895199438,0.1728568376720481,-0.6895962401196326,-33.375,-18.375,7.25
274.0,47.7294921875,-22.0947265625,-13.427734375,0.8662373729667043,0.173589281899472,-0.3670766319772942,-29.1875,-22.1875,9.25
274.5,14.0380859375,-46.0205078125,-15.869140625,0.8580584124271371,0.261238441114536,-0.6590777306436354,-25.625,-29.3125,6.125
275.0,-8.544921875,-36.1328125,-32.28759765625,0.347544785912656,0.3654896694845423,-0.8354747154148991,-24.9375,-28.25,8.875
275.5,-63.04931640625,186.4013671875,107.421875,0.7015594958342235,0.5476241340372936,-0.5153965880306406,-19.625,-46.8125,12.5
276.0,3.11279296875,1.28173828125,-4.638671875,0.8207037568285165,0.2882168034913175,-0.4000366222113712,-16.5,-34.6875,1.3125
276.5,-6.7138671875,0.42724609375,0.8544921875,0.8275399029511399,0.3466902676473281,-0.4334849085970641,-18.875,-32.375,10.5
277.0,-7.080078125,-11.1083984375,-2.86865234375,0.8448744163335062,0.4506973479415265,-0.4359263893551439,-20.0,-32.8125,9.6875
277.5,-28.01513671875,-21.240234375,-117.49267578125,0.4465468306527909,0.7616199224829859,-0.511123996704001,-20.75,-34.3125,7.6875
278.0,11.41357421875,-8.7890625,-16.41845703125,-0.1969054231391339,0.7677236243781854,-0.5142979216895047,4.625,-35.8125,8.875
278.5,-1.03759765625,40.58837890625,162.9638671875,0.1991027558214056,0.5966978972746971,-0.5500656147953734,17.6875,-27.4375,10.5
279.0,-1.5869140625,-2.5634765625,34.11865234375,0.8017822809533982,0.1822565385906552,-0.3532822656941435,4.25,-35.375,9.25
279.5,15.93017578125,-31.8603515625,-163.02490234375,0.923123874629963,0.4906155583361308,-0.4808496353038117,-23.5,-33.125,5.3125
280.0,-24.4140625,-10.8642578125,-56.57958984375,0.0954618976409192,0.7696768089846492,-0.5368816187017426,-18.25,-36.5625,11.3125
280.5,-3.0517578125,6.04248046875,109.619140625,0.4411755729850154,0.8843043305764946,-0.6656697286904507,11.0,-32.375,8.4375
281.0,4.7607421875,-34.3017578125,-57.12890625,0.7870113223670155,0.5997497482222969,-0.3824579607531968,-2.0,-36.1875,11.6875
281.5,3.35693359375,36.4990234375,0.67138671875,0.3980834376049074,0.489516891994995,-0.5288247322000793,-19.25,-38.0625,4.5
282.0,20.81298828125,-2.74658203125,-3.7841796875,0.4602191228980377,0.7773674733726005,-0.5466475417340617,-3.4375,-35.0625,15.6875
282.5,-1.708984375,0.732421875,-1.46484375,0.4393444624164556,0.6967986083559679,-0.5664235358745079,-4.4375,-30.5,15.6875
283.0,-9.94873046875,9.82666015625,-14.34326171875,0.5050202948088015,0.6902066103091525,-0.4959868160039064,-3.75,-35.8125,14.875
283.5,35.21728515625,5.55419921875,138.3056640625,0.8135013885921811,0.4743797112949003,-0.4787743766594439,-1.6875,-35.0,13.3125
284.0,21.8505859375,-12.939453125,-14.7705078125,0.9398480178228096,0.1784722434156316,-0.5048982207708975,-15.0625,-32.375,13.75
284.5,-12.63427734375,-64.88037109375,-55.0537109375,0.0284432508316293,0.3490096743675039,-0.6779992065187537,-21.75,-27.4375,15.25
285.0,-9.94873046875,127.38037109375,65.97900390625,0.2027649769585253,0.1569872127445295,-0.2082583086642048,10.3125,-29.75,19.3125
285.5,-31.31103515625,-53.28369140625,-46.875,0.7770012512588885,0.5915707876827295,-0.4986724448377941,0.75,-30.875,24.5
286.0,8.1787109375,-7.26318359375,5.4931640625,0.4510635700552385,0.9503463850825524,-0.7267067476424451,-12.5625,-32.0,15.25
286.5,1.5869140625,0.9765625,-2.0751953125,0.3857539597766045,0.7007049775688955,-0.5852229377117222,-3.0625,-34.6875,14.875
287.0,0.18310546875,1.03759765625,-0.18310546875,0.3958861049226356,0.6823938718832973,-0.5874202703939939,-2.6875,-33.5,16.5
287.5,-0.42724609375,-2.01416015625,0.54931640625,0.4005249183629871,0.6871547593615528,-0.5693533127842036,-3.0625,-35.0,16.0625
288.0,-0.54931640625,-0.3662109375,0.244140625,0.3967406231879635,0.7000946073793756,-0.5692312387462997,-3.0625,-34.3125,12.125
288.5,0.79345703125,0.54931640625,0.0,0.3968626972258675,0.6660359508041627,-0.5549485763115329,0.0625,-34.3125,17.3125
289.0,-0.8544921875,0.42724609375,-0.67138671875,0.402233954893643,0.6900845362712485,-0.5648365733817561,-0.1875,-35.8125,14.5
289.5,-0.79345703125,-0.91552734375,0.244140625,0.4079714346751305,0.7008270516067995,-0.5730155339213233,-2.3125,-35.375,16.0625
290.0,-35.82763671875,98.2666015625,72.32666015625,0.5888851588488418,0.6946012756736961,-0.2208319345683156,-1.6875,-34.3125,17.3125
290.5,-16.05224609375,-42.724609375,-96.61865234375,0.6895962401196326,0.640766624958037,-0.4631488998077334,-18.25,-35.0,9.25
291.0,11.71875,-13.36669921875,-18.5546875,0.0374767296365245,0.7583239234595782,-0.4231086153752251,-8.0,-34.6875,16.875
291.5,19.10400390625,-6.65283203125,42.29736328125,0.3969847712637714,0.793603320413831,-0.4591204565569017,13.8125,-30.875,13.3125
292.0,-7.32421875,2.9296875,-1.77001953125,0.3977172154911954,0.7359843745231482,-0.5367595446638386,-2.3125,-35.375,10.875
292.5,-3.41796875,-1.708984375,0.18310546875,0.3993041779839472,0.7457502975554674,-0.52088991973632,-3.4375,-36.9375,14.5
293.0,2.25830078125,-1.3427734375,2.5634765625,0.4001586962492752,0.7363505966368602,-0.5035554063539537,-1.3125,-33.875,16.5
293.5,-2.86865234375,-1.64794921875,-0.244140625,0.4212775048066652,0.7203588976714377,-0.5402996917630543,-0.9375,-33.125,13.3125
294.0,-0.42724609375,-0.244140625,0.67138671875,0.4167607654042176,0.7210913418988617,-0.5258949552903837,-2.6875,-34.3125,12.125
294.5,0.18310546875,-0.48828125,0.48828125,0.4316537980285043,0.7309793389690847,-0.5139316995757928,-1.3125,-34.3125,14.5
295.0,-1.220703125,-0.48828125,0.48828125,0.4145634327219458,0.7217017120883816,-0.52211066011536,-1.6875,-35.375,11.3125
295.5,0.6103515625,-0.8544921875,-0.1220703125,0.4170049134800256,0.727561265907773,-0.5308999908444472,-2.6875,-34.6875,13.3125
296.0,0.244140625,-0.54931640625,1.0986328125,0.4221320230719931,0.7134006775109104,-0.5144199957274087,-2.6875,-36.5625,13.75
296.5,-2.9296875,-0.3662109375,0.91552734375,0.4156620990630817,0.7302468947416608,-0.5239417706839198,-1.3125,-33.875,13.3125
297.0,-1.03759765625,-1.220703125,0.9765625,0.4055299539170507,0.7297585985900449,-0.5371257667775506,-1.6875,-35.0625,16.0625
297.5,0.91552734375,-0.54931640625,2.01416015625,0.4272591326639607,0.7264625995666372,-0.5134434034241767,-2.3125,-32.8125,12.5
298.0,0.8544921875,0.54931640625,-1.220703125,0.423841059602649,0.7339091158787805,-0.5189367351298563,-2.6875,-35.0,15.25
298.5,34.60693359375,37.353515625,-53.466796875,0.3216650898770104,0.6961882381664479,-0.4705954161198767,-3.0625,-35.0625,16.0625
299.0,7.8125,-1.5869140625,6.4697265625,0.3657338175603503,0.6926480910672322,-0.5804620502334666,0.0,-31.625,23.3125
299.5,-39.85595703125,4.8828125,-1.953125,0.3448591570787683,0.727683339945677,-0.5803399761955627,0.0,-35.0,22.0625
300.0,-3.84521484375,-5.79833984375,0.48828125,0.3055513168736838,0.6721396526993622,-0.609149449140904,0.75,-33.5,18.5
300.5,9.70458984375,4.33349609375,-4.39453125,0.3387554551835688,0.6609088412121952,-0.6673787652211066,0.0,-31.625,18.5
301.0,-30.45654296875,11.8408203125,-7.75146484375,0.3021332438123722,0.7230445265053255,-0.6012146366771447,0.375,-27.8125,19.75
301.5,17.822265625,-8.97216796875,5.126953125,0.3062837611011078,0.7479476302377391,-0.5794854579302346,1.5,-31.25,17.6875
302.0,17.08984375,-15.13671875,21.66748046875,0.3899044770653401,0.5727713858455153,-0.6604205450605792,0.75,-30.125,20.9375
302.5,-2.25830078125,3.47900390625,-5.0048828125,0.3276467177343058,0.6875209814752647,-0.6272164067506943,2.125,-30.125,22.875
303.0,9.8876953125,8.85009765625,-21.8505859375,0.3270363475447859,0.6915494247260964,-0.5958433790093692,2.875,-32.375,17.3125
303.5,-0.244140625,-11.23046875,18.9208984375,0.3421735282448805,0.6900845362712485,-0.6123233741264077,0.375,-31.625,20.5
304.0,6.40869140625,1.0986328125,-2.13623046875,0.3420514542069765,0.6720175786614582,-0.6355174413281656,2.875,-30.125,23.3125
304.5,-46.0205078125,-27.83203125,53.52783203125,0.4265266884365367,0.6178167058320871,-0.6029236732078005,2.875,-31.625,22.5
305.0,-17.822265625,5.55419921875,-12.26806640625,0.3919797357097079,0.6252632221442305,-0.6650593585009308,-2.3125,-31.25,15.25
305.5,9.09423828125,-6.40869140625,-1.03759765625,0.3490096743675039,0.6815393536179692,-0.6581011383404034,-3.4375,-32.375,17.6875
306.0,19.1650390625,-5.79833984375,0.9765625,0.423474837488937,0.7353740043336283,-0.4898831141087069,1.5,-30.125,18.125
306.5,-0.8544921875,0.732421875,-1.0986328125,0.4151738029114658,0.6283150730918302,-0.630024109622486,-5.1875,-34.3125,14.125
307.0,1.0986328125,-0.732421875,-0.18310546875,0.412488174077578,0.6360057374797815,-0.6275826288644063,-3.4375,-32.0,12.9375
307.5,15.56396484375,39.0625,-49.8046875,0.3680532242805261,0.6916714987640004,-0.576677755058443,-4.4375,-30.875,15.6875
308.0,12.5732421875,-27.52685546875,21.66748046875,0.3978392895290994,0.6976531266212959,-0.6642048402356029,-0.1875,-29.75,17.6875
308.5,1.220703125,0.48828125,-3.173828125,0.3606067079683828,0.6169621875667592,-0.6759239478743858,-1.6875,-31.625,22.5
309.0,1.15966796875,-22.03369140625,13.18359375,0.4218878749961852,0.729026154362621,-0.5666676839503159,0.75,-29.3125,22.0625
309.5,13.916015625,4.69970703125,0.732421875,0.4073610644856105,0.609149449140904,-0.6455275124362926,-3.4375,-34.3125,16.875
310.0,3.0517578125,-1.220703125,0.732421875,0.3759880367442854,0.7050996429334391,-0.5887630848109379,-0.5625,-28.625,18.125
310.5,-1.220703125,-0.1220703125,-1.3427734375,0.3628040406506546,0.6248970000305185,-0.652607806634724,0.375,-31.25,18.5
311.0,-8.4228515625,-4.57763671875,22.3388671875,0.4179815057832575,0.575334940641499,-0.63014618366039,0.0,-28.625,19.3125
311.5,24.658203125,-93.505859375,-113.58642578125,-0.0070802941984313,0.3116550187688833,-0.5168614764854884,-0.1875,-30.875,20.5625
312.0,10.07080078125,148.681640625,175.78125,0.804223761711478,0.782494582964568,-0.6550492873928038,16.625,-21.375,19.75
312.5,-54.19921875,-48.095703125,-167.236328125,0.8427991576891385,0.7137668996246224,-0.5428632465590381,-9.0625,-32.375,12.9375
313.0,14.0380859375,-10.43701171875,21.240234375,-0.1307412945951719,0.6081728568376721,-0.4282357249671926,-15.75,-30.875,19.3125
313.5,57.7392578125,-71.59423828125,148.25439453125,0.6457716605121006,0.4813379314554277,-0.7343974120303964,19.0625,-25.1875,9.25
314.0,31.73828125,-1.52587890625,-20.99609375,0.6450392162846766,-0.4283577990050966,-0.5009918515579699,-22.125,-24.0625,22.5
314.5,-38.2080078125,-14.6484375,10.25390625,0.6875209814752647,-0.7480697042756432,-0.2531815546128727,-29.875,-0.9375,25.3125
315.0,-50.96435546875,6.77490234375,-83.06884765625,0.6333201086458937,0.1256141850032044,-0.7361064485610522,-31.625,5.4375,22.0625
315.5,-35.15625,-25.7568359375,-146.1181640625,0.3337504196295053,0.663228247932371,-0.7252418591875973,-21.75,-25.1875,20.9375
316.0,-6.53076171875,-1.28173828125,-14.892578125,-0.2863856929227577,0.6444288460951567,-0.5623950926236763,-2.3125,-32.0,15.6875
316.5,36.68212890625,90.4541015625,208.19091796875,0.728782006286813,0.7363505966368602,-0.5802179021576587,22.3125,-23.3125,6.5
317.0,14.16015625,-21.3623046875,-5.2490234375,0.924710837122715,0.2585528122806482,-0.564470351268044,-2.3125,-30.125,16.0625
317.5,21.42333984375,-73.79150390625,-19.22607421875,0.1855525376140629,0.1707815790276803,-0.7348857081820124,-24.625,-26.75,15.6875
318.0,-11.65771484375,151.85546875,39.794921875,0.761375774407178,0.4830469679860835,-0.8230231635486923,0.0,-25.9375,26.125
318.5,-3.35693359375,-2.9296875,-13.48876953125,0.8465834528641621,0.2644123661000396,-0.4791405987731559,-10.125,-27.4375,21.375
319.0,16.2353515625,-22.3388671875,-120.54443359375,0.4836573381756035,0.6062196722312082,-0.597674489577929,-21.75,-26.375,19.75
319.5,1.5869140625,-25.81787109375,21.66748046875,0.2211981566820276,0.6755577257606739,-0.6334421826837977,-5.875,-29.3125,22.0625
320.0,-7.080078125,-22.39990234375,-26.123046875,0.1501510666219062,0.7730948820459609,-0.6716513565477462,7.5,-29.3125,21.6875
320.5,-0.1220703125,34.48486328125,49.25537109375,0.0593279824213385,0.5953550828577532,-0.5510422070986053,6.0625,-29.75,16.875
321.0,8.544921875,10.6201171875,27.28271484375,0.6766563921018097,0.4693746757408368,-0.6545609912411878,11.0,-27.0625,15.6875
321.5,-14.46533203125,-35.33935546875,-57.4951171875,0.5749687185277871,0.6933805352946563,-0.6493118076113162,-11.875,-26.75,21.6875
322.0,0.54931640625,-38.330078125,-29.47998046875,0.1198767052217169,0.7568590350047304,-0.5204016235847041,-7.625,-28.25,19.3125
322.5,27.9541015625,12.26806640625,28.076171875,-0.0190435499130222,0.684102908413953,-0.5570238349559008,6.0625,-28.9375,14.4375
323.0,-18.61572265625,73.1201171875,111.4501953125,0.836695455793939,0.5381023590807825,-0.6039002655110325,13.125,-31.25,14.4375
323.5,23.8037109375,-15.5029296875,-37.109375,0.8785668507950072,0.3523056733909115,-0.4166386913663136,-12.5625,-27.8125,16.875
324.0,-6.8359375,-51.7578125,-59.6923828125,0.5589770195623646,0.6399121066927091,-0.6362498855555895,-21.75,-25.1875,18.125
324.5,14.95361328125,14.7705078125,20.751953125,0.1900692770165105,0.5781426435132908,-0.6583452864162115,-7.625,-32.0,19.3125
325.0,-16.78466796875,36.43798828125,45.34912109375,0.9171422467726676,0.4498428296761986,-0.5721610156559953,5.375,-28.9375,20.125
325.5,-0.9765625,0.06103515625,0.0,0.8843043305764946,0.2298654133732108,-0.4033326212347788,-21.0,-27.8125,20.5625
326.0,19.04296875,-94.3603515625,-51.6357421875,0.533341471602527,0.3382671590319528,-0.8618427076021608,-23.875,-25.9375,18.5
326.5,-24.4140625,40.46630859375,24.4140625,-0.1204870754112369,0.2222968230231635,-0.5733817560350353,-6.25,-24.0625,26.125
327.0,6.16455078125,40.52734375,47.54638671875,0.4603411969359416,0.3958861049226356,-0.7131565294351024,14.1875,-19.125,23.6875
327.5,0.244140625,4.8828125,17.08984375,0.7968993194372387,0.2849208044679098,-0.5166173284096804,-3.0625,-26.375,20.5625
328.0,-4.57763671875,-0.8544921875,2.50244140625,0.8205816827906125,0.2504959257789849,-0.4908597064119388,-17.5,-24.4375,22.5
328.5,0.42724609375,-1.5869140625,-2.01416015625,0.8025147251808221,0.2526932584612567,-0.5266273995178076,-20.0,-23.6875,22.5
329.0,-0.79345703125,-7.01904296875,-5.31005859375,0.782738731040376,0.3310647907956175,-0.5852229377117222,-19.25,-25.5625,20.125
329.5,5.4931640625,-45.166015625,-33.69140625,0.4029663991210669,0.3845332193975646,-0.7169408246101261,-17.875,-26.75,20.5625
330.0,-7.8125,21.240234375,10.07080078125,0.2197332682271797,0.4524063844721824,-0.8244880520035401,-4.125,-24.0625,26.125
330.5,-5.06591796875,55.35888671875,38.02490234375,0.5033112582781457,0.4061403241065706,-0.7077852717673269,3.625,-23.6875,26.125
331.0,-28.3203125,21.54541015625,40.71044921875,0.8326670125431074,0.2877285073397015,-0.5938901944029054,-4.125,-25.5625,26.125
331.5,3.2958984375,-0.18310546875,-13.671875,0.8386486404004029,0.2146061586352122,-0.5017242957853938,-18.25,-26.75,20.5625
332.0,-1.46484375,-1.708984375,7.8125,0.8106936857203895,0.2800378429517502,-0.500137333292642,-20.375,-24.8125,17.3125
332.5,4.94384765625,1.46484375,-1.89208984375,0.7959227271340068,0.2901699880977813,-0.5016022217474898,-20.0,-26.75,20.9375
333.0,1.46484375,0.6103515625,-2.13623046875,0.7918942838831752,0.3079927976317637,-0.5079500717184973,-19.625,-28.25,22.875
333.5,-4.638671875,-0.67138671875,2.13623046875,0.7947019867549668,0.3200781273842585,-0.5061189611499375,-18.625,-26.375,21.3125
334.0,0.79345703125,-46.38671875,-25.7568359375,0.771019623401593,0.4406872768333995,-0.6760460219122898,-16.8125,-25.9375,20.125
334.5,-14.22119140625,-22.94921875,-38.9404296875,0.1326944792016358,0.4655903805658131,-0.7904293954283272,-16.8125,-28.625,19.75
335.0,-10.8642578125,10.009765625,-46.69189453125,0.0471205786309396,0.8147221289712211,-0.6772667622913296,7.8125,-24.0625,24.5
335.5,-7.26318359375,-0.18310546875,10.1318359375,-0.2309640797143467,0.6424756614886928,-0.4426404614398633,10.625,-29.75,16.875
336.0,18.6767578125,40.8935546875,108.21533203125,0.7060762352366711,0.7171849726859341,-0.5438398388622699,21.1875,-21.375,13.3125
336.5,6.77490234375,2.01416015625,13.97705078125,0.8745384075441756,0.2923673207800531,-0.4530167546617023,-4.4375,-32.375,14.875
337.0,-18.12744140625,-35.82763671875,-46.0205078125,0.6906949064607685,0.5415204321420942,-0.6416211432233649,-21.75,-25.1875,17.6875
337.5,-4.57763671875,5.55419921875,3.7841796875,0.336802270577105,0.6650593585009308,-0.5747245704519791,-12.9375,-26.75,20.125
338.0,8.11767578125,22.0947265625,28.74755859375,0.4951322977385785,0.6775109103671376,-0.5608081301309245,2.5,-32.375,15.6875
338.5,4.0283203125,1.46484375,10.6201171875,0.5998718222602009,0.554216132084109,-0.5556810205389568,-3.75,-31.625,18.125
339.0,4.638671875,3.84521484375,9.58251953125,0.6567583239234596,0.4693746757408368,-0.5564134647663808,-9.75,-32.0,17.3125
339.5,-10.6201171875,0.0,11.04736328125,0.7568590350047304,0.445692312387463,-0.5633716849269081,-12.5625,-29.75,21.6875
340.0,2.13623046875,-1.64794921875,-1.89208984375,0.7435529648731956,0.3902706991790521,-0.5288247322000793,-15.0625,-28.9375,21.3125
340.5,10.498046875,-0.79345703125,-2.01416015625,0.7052217169713432,0.3634144108401745,-0.5313882869960631,-15.75,-28.625,22.875
341.0,-13.73291015625,-34.60693359375,-59.14306640625,0.6224555192724387,0.5676442762535477,-0.6026795251319925,-14.375,-27.0625,19.75
341.5,2.197265625,-1.03759765625,-0.06103515625,0.3934446241645558,0.5749687185277871,-0.6443067720572527,-11.875,-28.25,20.125
342.0,-6.7138671875,-10.43701171875,8.48388671875,0.4386120181890316,0.5853450117496262,-0.6961882381664479,-0.1875,-28.9375,20.125
342.5,-4.2724609375,0.732421875,-6.4697265625,0.3443708609271523,0.6029236732078005,-0.6607867671742912,-5.5625,-27.0625,22.5
343.0,-3.5400390625,-1.953125,5.4931640625,0.3753776665547654,0.6129337443159276,-0.6922818689535203,-0.1875,-30.125,22.5
343.5,-1.8310546875,-0.06103515625,6.2255859375,0.3868526261177404,0.5809503463850826,-0.6722617267372661,0.0,-29.3125,21.6875
344.0,0.9765625,1.46484375,3.90625,0.4189580980864894,0.5811944944608906,-0.6872768333994568,-2.3125,-28.25,22.5
344.5,0.0,0.91552734375,3.2958984375,0.4162724692526017,0.576677755058443,-0.663228247932371,-1.3125,-27.0625,20.125
345.0,0.79345703125,-1.15966796875,2.25830078125,0.434095278786584,0.5959654530472732,-0.6508987701040682,-2.3125,-29.75,21.6875
345.5,0.244140625,-0.30517578125,1.46484375,0.4416638691366313,0.5736259041108432,-0.6601763969847713,-4.4375,-28.625,19.75
346.0,-0.732421875,-1.28173828125,1.0986328125,0.445448164311655,0.6026795251319925,-0.6660359508041627,-4.125,-27.8125,18.5
346.5,2.197265625,3.47900390625,0.91552734375,0.4140751365703299,0.5737479781487472,-0.6651814325388348,-4.4375,-29.75,22.5
347.0,6.65283203125,1.953125,0.48828125,0.4410534989471114,0.5266273995178076,-0.6692098757896664,-3.0625,-29.3125,22.0625
347.5,3.84521484375,5.18798828125,5.31005859375,0.4611957152012695,0.5172276985992004,-0.7303689687795648,-3.75,-29.3125,24.9375
348.0,3.84521484375,2.9296875,0.1220703125,0.4807275612659077,0.4743797112949003,-0.7102267525254067,-4.125,-27.0625,23.3125
348.5,-32.2265625,-22.4609375,-47.9736328125,0.4292123172704245,0.5955992309335612,-0.7566148869289224,-4.4375,-27.8125,28.5625
349.0,26.42822265625,-29.84619140625,-22.52197265625,-0.0065919980468153,0.6487014374217963,-0.6889858699301126,-5.5625,-27.4375,21.6875
349.5,7.6904296875,-5.859375,-5.31005859375,-0.1285439619129001,0.5943784905545213,-0.7815179906613361,10.625,-27.4375,21.3125
350.0,-8.1787109375,90.63720703125,96.8017578125,0.5987731559190649,0.7409894100772119,-0.8336436048463393,17.6875,-24.4375,18.5
350.5,-12.39013671875,-1.220703125,10.07080078125,0.80397961363567,0.4369029816583758,-0.4797509689626759,2.875,-30.5,20.9375
351.0,0.42724609375,-10.07080078125,-5.67626953125,0.7840815454573199,0.4434949797051912,-0.5090487380596331,-18.625,-27.8125,16.875
351.5,15.56396484375,-49.86572265625,-44.61669921875,0.3221533860286263,0.3051850947599719,-0.6977752006591998,-16.5,-29.75,18.125
352.0,-9.6435546875,0.3662109375,6.34765625,0.1481978820154423,0.5179601428266244,-0.8742942594683676,-0.9375,-24.0625,26.125
352.5,-2.5634765625,1.52587890625,2.3193359375,0.1803033539841914,0.5090487380596331,-0.8131351664784692,6.0625,-22.5625,24.9375
353.0,0.42724609375,0.42724609375,1.77001953125,0.2016663106173894,0.5131992553483687,-0.8164311655018769,5.375,-27.0625,23.6875
353.5,5.43212890625,12.939453125,4.82177734375,0.238288521988586,0.4600970488601337,-0.7617419965208899,2.875,-25.1875,24.9375
354.0,-11.53564453125,17.2119140625,-5.9814453125,0.4852443006683553,0.4377574999237037,-0.7531968138676107,3.9375,-25.1875,22.0625
354.5,-4.94384765625,16.6015625,24.2919921875,0.5341959898678549,0.3829462569048127,-0.6390575884273813,-3.75,-24.0625,26.125
355.0,31.79931640625,50.96435546875,9.33837890625,1.0791344950712607,0.4487441633350627,-0.5953550828577532,-3.75,-24.0625,25.75
355.5,23.681640625,-111.9384765625,-82.8857421875,0.4736472670674764,0.4284798730430005,-0.7661366618854335,-23.125,-29.75,12.5
356.0,-7.568359375,57.18994140625,42.48046875,0.2381664479506821,0.4818262276070437,-0.7146214178899503,-8.3125,-28.625,23.6875
356.5,5.2490234375,-0.91552734375,-1.64794921875,0.7683339945677053,0.3333841975157933,-0.5035554063539537,4.625,-28.25,23.6875
357.0,-3.84521484375,-0.18310546875,12.75634765625,0.7998290963469344,0.2766197698904385,-0.5130771813104648,-16.8125,-27.4375,22.5
357.5,-3.41796875,2.62451171875,9.46044921875,0.8187505722220527,0.2872402111880855,-0.500137333292642,-17.5,-26.375,20.9375
358.0,-2.74658203125,2.9296875,-0.54931640625,0.8348643452253792,0.2793053987243263,-0.4892727439191869,-20.0,-23.6875,21.6875
358.5,0.9765625,4.08935546875,2.197265625,0.826441236610004,0.2243720816675313,-0.4715720084231086,-20.375,-23.6875,22.0625
359.0,-4.21142578125,1.46484375,3.84521484375,0.8512222663045137,0.2854091006195257,-0.4687643055513169,-21.375,-26.75,22.5
359.5,0.6103515625,1.0986328125,-4.5166015625,0.8425550096133305,0.2619708853419599,-0.4683980834376049,-20.375,-25.9375,18.9375
360.0,1.40380859375,1.5869140625,-3.11279296875,0.8435316019165624,0.2655110324411756,-0.4520401623584704,-21.75,-27.4375,19.3125
360.5,0.67138671875,-0.06103515625,-0.9765625,0.8435316019165624,0.2642902920621356,-0.4572893459883419,-21.375,-25.5625,21.6875
361.0,-1.28173828125,-0.67138671875,-0.91552734375,0.8517105624561296,0.2678304391613513,-0.4532609027375103,-21.75,-23.6875,18.9375
361.5,4.2724609375,3.84521484375,-4.8828125,0.8570818201239051,0.2346263008514664,-0.4723044526505325,-20.375,-25.5625,18.125
362.0,-2.0751953125,4.0283203125,-0.48828125,0.8360850856044191,0.2701498458815271,-0.4801171910763878,-21.75,-25.9375,17.6875
362.5,3.662109375,-0.18310546875,-4.94384765625,0.8392590105899228,0.2732016968291268,-0.4431287575914792,-20.375,-27.0625,17.6875
363.0,-0.732421875,-0.54931640625,0.06103515625,0.8443861201818903,0.2598956266975921,-0.4599749748222297,-19.625,-26.75,19.3125
363.5,-1.28173828125,-0.42724609375,-0.48828125,0.8514664143803217,0.2502517777031769,-0.4549699392681661,-20.0,-26.375,17.6875
364.0,-0.3662109375,-0.6103515625,-0.732421875,0.8348643452253792,0.2940763573107089,-0.445570238349559,-20.375,-25.9375,18.125
364.5,7.26318359375,-24.35302734375,-10.7421875,0.8318124942777795,0.3289895321512497,-0.6226996673482467,-20.75,-25.9375,18.125
365.0,-18.798828125,-64.75830078125,-44.0673828125,-0.0574968718527787,0.2486648152104251,-0.707052827539903,-20.75,-26.75,19.3125
365.5,-13.0615234375,124.20654296875,32.28759765625,0.5240638447218238,0.6102481154820398,-0.8243659779656362,5.0,-25.1875,26.5
366.0,4.45556640625,-6.7138671875,4.69970703125,0.7441633350627155,0.3132419812616351,-0.4991607409894101,2.125,-25.5625,23.6875
366.5,26.85546875,-66.5283203125,-45.166015625,0.4273812067018647,0.4231086153752251,-0.7693105868709372,-18.25,-25.5625,19.3125
367.0,-10.07080078125,50.59814453125,33.5693359375,0.2346263008514664,0.2888271736808374,-0.8600115970336009,-7.3125,-24.8125,27.75
367.5,-5.0048828125,15.07568359375,12.6953125,0.5387127292703024,0.3160496841334269,-0.7662587359233375,6.375,-18.75,25.75
368.0,-1.03759765625,27.64892578125,8.60595703125,0.6675008392590106,0.3377788628803369,-0.586565752128666,-5.875,-24.8125,27.75
368.5,-1.3427734375,-0.30517578125,8.544921875,0.7693105868709372,0.2807702871791742,-0.5645924253059481,-12.5625,-23.6875,23.3125
369.0,0.54931640625,3.7841796875,-0.30517578125,0.7815179906613361,0.239265114291818,-0.5496993926816615,-17.125,-27.0625,18.9375
369.5,0.9765625,1.708984375,-1.46484375,0.7840815454573199,0.2893154698324534,-0.52211066011536,-17.875,-25.9375,20.5
370.0,-2.3193359375,0.1220703125,-0.732421875,0.7746818445387127,0.3200781273842585,-0.5023346659749138,-18.25,-25.9375,22.5
370.5,-0.54931640625,-1.953125,4.7607421875,0.7877437665944396,0.249153111362041,-0.5504318369090854,-18.625,-25.5625,17.3125
371.0,8.30078125,-3.84521484375,1.953125,0.80458998382519,0.2860194708090456,-0.5340739158299509,-18.875,-23.6875,18.9375
371.5,1.52587890625,1.03759765625,0.8544921875,0.8030030213324382,0.2343821527756584,-0.5510422070986053,-20.0,-23.3125,21.375
372.0,-0.1220703125,2.74658203125,-4.7607421875,0.7994628742332225,0.2305978576006347,-0.5291909543137913,-19.25,-24.4375,21.6875
372.5,-2.9296875,3.0517578125,2.9296875,0.7619861445966979,0.2757652516251106,-0.5409100619525742,-20.375,-24.0625,22.0625
373.0,-14.2822265625,-61.58447265625,-9.033203125,0.7975096896267586,0.3349711600085452,-0.7912839136936552,-19.625,-25.5625,24.9375
373.5,7.50732421875,-33.0810546875,-23.8037109375,0.0467543565172277,0.2812585833307901,-0.8324228644672994,-19.25,-25.5625,20.9375
374.0,12.39013671875,77.81982421875,-62.68310546875,0.7307351908932768,0.945707571642201,-0.870265816217536,2.5,-28.9375,26.5625
374.5,-6.77490234375,-18.6767578125,-55.48095703125,0.0798364207892086,0.7365947447126683,-0.4981841486861781,-11.1875,-30.5,19.75
375.0,35.64453125,28.80859375,98.81591796875,0.0737327188940092,0.641132847071749,-0.4119998779259621,9.5625,-30.875,14.4375
375.5,4.638671875,-7.26318359375,4.5166015625,0.8539078951384015,0.3247169408246101,-0.4444715720084231,15.25,-27.8125,11.6875
376.0,4.2724609375,-0.9765625,-2.685546875,0.8730735190893277,0.1554002502517777,-0.434339426862392,-19.625,-28.625,15.25
376.5,0.42724609375,2.5634765625,0.91552734375,0.86855677968688,0.2310861537522507,-0.4155400250251778,-21.75,-25.5625,16.875
377.0,0.06103515625,1.0986328125,-1.64794921875,0.8827173680837428,0.2249824518570513,-0.4087038789025544,-24.625,-25.9375,17.3125
377.5,0.1220703125,0.3662109375,1.8310546875,0.8878444776757103,0.1768852809228797,-0.4072389904477065,-23.875,-25.1875,18.125
378.0,0.30517578125,-0.67138671875,0.91552734375,0.8962675862910855,0.2042298654133732,-0.4027222510452589,-23.125,-25.1875,18.9375
378.5,2.3193359375,-1.5869140625,-3.173828125,0.8932157353434859,0.2011780144657735,-0.4148075807977538,-22.5,-24.8125,18.9375
379.0,1.220703125,0.0,-3.84521484375,0.8918729209265419,0.1875057222205267,-0.4151738029114658,-23.5,-24.0625,21.6875
379.5,-2.13623046875,-11.16943359375,-4.638671875,0.891262550737022,0.2089907528916287,-0.4591204565569017,-23.5,-25.1875,19.3125
380.0,-2.86865234375,-87.21923828125,-68.2373046875,0.2743003631702627,0.3309427167577135,-0.7462385937070833,-25.25,-25.1875,17.3125
380.5,1.52587890625,139.09912109375,67.9931640625,0.5807061983092746,0.4111453596606341,-0.7926267281105991,-6.25,-25.5625,25.3125
381.0,0.18310546875,13.36669921875,7.4462890625,0.8351084933011872,0.2723471785637989,-0.4702291940061647,1.875,-25.1875,26.9375
381.5,1.220703125,-1.89208984375,1.953125,0.8749046296578875,0.2147282326731162,-0.4323862422559282,-18.625,-26.375,21.6875
382.0,-2.25830078125,3.0517578125,6.7138671875,0.8716086306344798,0.1936094241157261,-0.4171269875179296,-22.8125,-24.4375,19.75
382.5,5.615234375,0.48828125,-8.9111328125,0.8652607806634725,0.2213202307199316,-0.4242072817163609,-21.75,-22.5625,15.6875
383.0,0.0,-0.42724609375,0.1220703125,0.8691671498764,0.2412182988982818,-0.423474837488937,-23.875,-26.375,18.125
383.5,7.4462890625,-14.2822265625,-14.95361328125,0.8625751518295847,0.2362132633442182,-0.4707174901577807,-22.125,-25.9375,19.3125
384.0,-5.43212890625,-74.70703125,-77.392578125,0.5627613147373882,0.543107394634846,-0.5982848597674489,-21.375,-25.9375,20.5625
384.5,-15.31982421875,-20.81298828125,-37.4755859375,-0.1363567003387554,0.6659138767662587,-0.6065858943449202,-14.375,-26.375,22.875
385.0,5.79833984375,22.5830078125,45.10498046875,-0.1374553666798913,0.7365947447126683,-0.4759666737876522,12.75,-27.0625,16.875
385.5,11.41357421875,40.10009765625,74.76806640625,0.914090395825068,0.6080507827997681,-0.6183050019837031,20.1875,-22.875,15.6875
386.0,3.72314453125,0.732421875,-2.74658203125,0.8650166325876644,0.1831110568559831,-0.4325083162938322,-10.125,-27.4375,19.3125
386.5,1.953125,3.11279296875,-1.708984375,0.8982207708975494,0.1573534348582415,-0.4570451979125339,-23.125,-24.4375,18.5
387.0,-2.13623046875,-0.67138671875,7.14111328125,0.8816187017426069,0.2204657124546037,-0.4277474288155766,-23.125,-25.1875,19.3125
387.5,0.1220703125,-0.18310546875,2.74658203125,0.8824732200079348,0.2137516403698843,-0.4257942442091128,-21.75,-26.75,20.125
388.0,-2.38037109375,-0.9765625,2.74658203125,0.8788109988708152,0.2236396374401074,-0.4201788384655293,-22.125,-24.8125,17.6875
388.5,-0.54931640625,-1.52587890625,0.244140625,0.880886257515183,0.1997131260109256,-0.4218878749961852,-22.8125,-25.1875,18.9375
389.0,-3.173828125,-68.603515625,-27.2216796875,0.7564928128910184,0.30420850245674,-0.6080507827997681,-22.8125,-25.5625,18.9375
389.5,-14.0380859375,-14.46533203125,-35.58349609375,-0.1022980437635426,0.1119418927579577,-0.4410534989471114,-22.5,-23.6875,19.75
390.0,-5.859375,17.27294921875,31.73828125,0.7212134159367657,0.3634144108401745,-0.6728720969267861,2.125,-22.5625,26.5
390.5,-3.23486328125,0.732421875,13.24462890625,0.8069093905453658,0.3078707235938597,-0.52088991973632,-10.8125,-26.375,23.6875
391.0,-3.72314453125,-1.8310546875,6.9580078125,0.8402356028931547,0.2628254036072878,-0.5005035554063539,-18.25,-25.1875,22.875
391.5,0.732421875,3.173828125,-1.8310546875,0.8462172307504502,0.2163151951658681,-0.4752342295602282,-19.25,-24.8125,20.125
392.0,-4.21142578125,-0.244140625,7.32421875,0.8575701162755212,0.2345042268135624,-0.4735251930295724,-19.625,-24.8125,20.125
392.5,-0.42724609375,0.732421875,1.3427734375,0.8401135288552507,0.2534257026886807,-0.45631275368511,-20.75,-24.8125,20.9375
393.0,-1.64794921875,1.3427734375,-1.28173828125,0.84743797112949,0.2664876247444074,-0.4652241584521012,-20.75,-25.9375,21.3125
393.5,1.8310546875,-1.0986328125,2.86865234375,0.8539078951384015,0.2331614123966185,-0.4555803094576861,-19.625,-25.5625,18.125
394.0,-1.220703125,0.6103515625,0.91552734375,0.8595233008819849,0.2396313364055299,-0.4629047517319254,-22.5,-25.5625,19.3125
394.5,-15.869140625,-43.9453125,-83.6181640625,0.7616199224829859,0.5005035554063539,-0.5312662129581591,-21.375,-25.5625,17.6875
395.0,-11.8408203125,-24.47509765625,-51.69677734375,0.0920438245796075,0.7650379955442976,-0.575334940641499,-20.75,-24.4375,18.9375
395.5,-4.638671875,8.056640625,19.1650390625,-0.2262031922360912,0.6678670613727226,-0.445326090273751,5.75,-30.125,16.5
396.0,13.12255859375,49.9267578125,132.62939453125,0.7603991821039461,0.7418439283425398,-0.5446943571275978,20.1875,-23.6875,14.125
396.5,-5.06591796875,0.9765625,14.0380859375,0.8550065614795374,0.3128757591479232,-0.4107791375469222,1.125,-32.8125,18.125
397.0,7.62939453125,1.89208984375,-3.90625,0.8565935239722892,0.2845545823541978,-0.379894405957213,-21.75,-27.4375,14.875
397.5,-4.8828125,-2.44140625,5.67626953125,0.8728293710135197,0.2757652516251106,-0.3990600299081392,-20.375,-27.0625,17.3125
398.0,0.42724609375,-0.48828125,1.28173828125,0.8752708517715995,0.2628254036072878,-0.3974730674153874,-22.125,-26.75,19.75
398.5,-4.7607421875,-0.42724609375,3.23486328125,0.8777123325296793,0.2503738517410809,-0.4088259529404583,-20.75,-27.8125,18.125
399.0,1.15966796875,-0.244140625,-0.42724609375,0.880397961363567,0.2535477767265847,-0.4091921750541704,-22.5,-29.3125,16.875
399.5,4.94384765625,-4.94384765625,-4.57763671875,0.880031739249855,0.2774742881557664,-0.4460585345011749,-23.5,-27.0625,19.3125
400.0,12.87841796875,-106.99462890625,-34.7900390625,0.5617847224341563,0.3576769310586871,-0.7603991821039461,-22.8125,-27.8125,21.3125
400.5,0.79345703125,-5.0048828125,-0.91552734375,-0.0134281441694387,0.2589190343943602,-0.7892086550492874,-15.0625,-25.1875,22.875
401.0,-24.23095703125,50.048828125,20.08056640625,0.3842890713217566,0.3873409222693563,-0.8532975249488814,7.8125,-24.0625,24.9375
401.5,21.6064453125,40.771484375,-17.333984375,0.5724051637318034,0.3748893704031495,-0.6378368480483413,4.625,-24.8125,24.9375
402.0,-35.70556640625,-42.05322265625,52.978515625,0.7378154850917081,0.3702505569627979,-0.5891293069246498,-8.3125,-25.5625,26.9375
402.5,22.3388671875,-14.22119140625,-31.8603515625,0.3398541215247047,0.3220313119907224,-0.6839808343760491,-13.25,-24.8125,22.0625
403.0,10.8642578125,-9.70458984375,-9.8876953125,0.3719595934934537,0.3673207800531022,-0.8227790154728843,-8.3125,-30.875,23.6875
403.5,-70.37353515625,-31.79931640625,-114.19677734375,-0.1396526993621631,0.5534836878566851,-0.759788811914426,-6.25,-27.4375,20.125
404.0,-5.615234375,2.5634765625,2.25830078125,-0.5428632465590381,0.5623950926236763,-0.5811944944608906,7.5,-25.5625,21.6875
404.5,2.99072265625,16.4794921875,57.18994140625,-0.4278695028534806,0.6507766960661642,-0.5534836878566851,26.1875,-13.8125,10.0625
405.0,15.56396484375,63.90380859375,91.796875,0.7645496993926817,0.652363658558916,-0.6624958037049471,26.875,-13.0625,12.125
405.5,3.47900390625,4.0283203125,0.06103515625,0.8608661152989288,0.4054078798791467,-0.4256721701712088,0.75,-31.625,18.5
406.0,27.34375,-1.40380859375,1.77001953125,0.8653828547013764,0.2544022949919126,-0.3999145481734672,-18.625,-29.75,15.25
406.5,17.15087890625,8.36181640625,5.37109375,0.8692892239143041,0.194708090456862,-0.4492324594866786,-20.375,-25.5625,18.9375
407.0,10.25390625,8.30078125,-1.64794921875,0.9062776573992126,0.0662862025818659,-0.4074831385235145,-21.75,-21.8125,21.6875
407.5,1.220703125,-2.197265625,2.0751953125,0.9077425458540604,0.0725119785149693,-0.4098025452436903,-22.125,-16.5,25.75
408.0,0.06103515625,-0.42724609375,0.30517578125,0.8866237372966704,0.0728782006286812,-0.4179815057832575,-26.0,-13.8125,24.125
408.5,0.48828125,0.9765625,-0.30517578125,0.901760917996765,0.0576189458906827,-0.4259163182470168,-21.0,-15.3125,26.5625
409.0,0.18310546875,1.0986328125,-0.244140625,0.9053010650959809,0.0634784997100741,-0.4310434278389843,-22.8125,-13.4375,24.5
409.5,0.244140625,0.0,0.8544921875,0.9106723227637562,0.0571306497390667,-0.4295785393841365,-24.625,-14.25,26.9375
410.0,0.06103515625,-0.1220703125,0.42724609375,0.9048127689443648,0.0477309488204596,-0.4300668355357524,-23.5,-13.4375,24.9375
410.5,-1.3427734375,0.30517578125,1.40380859375,0.9093295083468124,0.0446790978728598,-0.4372692037720878,-23.5,-13.0625,24.9375
411.0,-0.3662109375,-2.13623046875,1.77001953125,0.9012726218451492,0.0522476882229071,-0.4620502334665975,-23.875,-15.3125,24.5
411.5,-2.38037109375,1.40380859375,0.54931640625,0.8724631488998077,0.0662862025818659,-0.4575334940641499,-23.125,-14.9375,24.125
412.0,-8.30078125,-4.8828125,-5.37109375,0.8846705526902066,0.0284432508316293,-0.4321420941801202,-22.125,-12.6875,24.5
412.5,-40.283203125,-126.15966796875,3.2958984375,0.6876430555131687,0.2227851191747795,-0.8764915921506393,-23.5,-14.5625,24.125
413.0,15.93017578125,-28.38134765625,-2.38037109375,-0.3357036042359691,0.2547685171056245,-0.5243079927976317,-18.625,-16.8125,26.5
413.5,2.5634765625,82.94677734375,25.2685546875,0.7329325235755486,0.4408093508713034,-0.9205603198339792,9.9375,-24.0625,22.0625
414.0,13.12255859375,23.49853515625,3.5400390625,0.8135013885921811,0.2120426038392285,-0.5953550828577532,-2.6875,-25.5625,24.5
414.5,16.29638671875,5.31005859375,2.25830078125,0.8733176671651357,0.1311075167088839,-0.5164952543717765,-18.625,-22.1875,24.5
415.0,-3.60107421875,7.38525390625,-5.67626953125,0.8993194372386852,0.0308847315897091,-0.4675435651722769,-21.375,-21.375,22.0625
415.5,0.06103515625,-4.45556640625,2.74658203125,0.8546403393658254,0.0268562883388775,-0.4651020844141972,-21.75,-17.625,22.5
416.0,0.91552734375,-3.11279296875,-0.3662109375,0.8711203344828639,0.010498367259743,-0.4951322977385785,-25.25,-17.25,26.125
416.5,1.0986328125,1.220703125,0.54931640625,0.8707541123691519,0.0157475508896145,-0.488784447767571,-23.5,-16.125,24.125
417.0,1.28173828125,-0.3662109375,-0.91552734375,0.8684347056489761,0.0206305124057741,-0.4959868160039064,-23.875,-13.8125,24.9375
417.5,-0.42724609375,0.91552734375,-0.79345703125,0.8641621143223365,0.0158696249275185,-0.4931791131321146,-22.125,-16.125,24.125
418.0,0.42724609375,-0.91552734375,-0.18310546875,0.86977752006592,0.0197759941404461,-0.4880520035401471,-23.5,-15.75,26.5
418.5,-14.5263671875,-0.30517578125,-3.11279296875,0.8955351420636616,-0.0185552537614062,-0.4513077181310465,-24.625,-14.5625,24.875
419.0,-25.69580078125,-118.65234375,-40.52734375,0.770775475325785,0.2096011230811487,-0.8083742790002136,-23.875,-13.8125,22.5
419.5,-10.68115234375,-20.5078125,-0.42724609375,-0.141361735892819,0.3761101107821894,-0.8486587115085299,-23.125,-19.875,24.5
420.0,-25.7568359375,67.19970703125,42.6025390625,0.7685781426435133,0.3248390148625141,-0.7483138523514512,5.6875,-25.9375,22.5
420.5,-8.48388671875,5.7373046875,2.8076171875,0.8233893856624043,0.1424604022339549,-0.5611743522446364,-5.5625,-28.9375,23.3125
421.0,-3.0517578125,0.79345703125,-4.7607421875,0.8578142643513291,0.086794640949736,-0.4552140873439741,-24.9375,-25.9375,16.875
421.5,-1.64794921875,0.244140625,0.30517578125,0.8764915921506393,0.1424604022339549,-0.4548478652302621,-27.375,-28.25,12.5
422.0,-4.5166015625,-3.662109375,-0.06103515625,0.8652607806634725,0.1401409955137791,-0.4924466689046907,-28.4375,-27.0625,7.25
422.5,-1.89208984375,-1.64794921875,6.2255859375,0.8172856837672048,0.1495406964323862,-0.521256141850032,-27.0625,-25.9375,13.3125
423.0,31.1279296875,6.7138671875,-16.41845703125,0.8491470076601458,0.1376995147556993,-0.5236976226081118,-26.6875,-25.9375,11.6875
423.5,29.11376953125,-114.3798828125,-65.73486328125,0.8511001922666097,0.1965392010254219,-0.8489028595843379,-28.125,-24.8125,12.125
424.0,-51.08642578125,77.392578125,29.78515625,-0.0576189458906827,0.0957060457167272,-0.4493545335245826,-26.375,-23.6875,17.6875
424.5,36.9873046875,15.13671875,-6.2255859375,0.8077639088106937,0.3005462813196203,-0.652119510483108,9.25,-23.3125,27.3125
425.0,-0.18310546875,-0.8544921875,0.67138671875,0.8170415356913968,0.2808923612170781,-0.5271156956694235,-11.5,-28.25,20.125
425.5,-13.61083984375,-27.52685546875,-102.4169921875,0.6267281105990783,0.532731101413007,-0.5732596819971313,-17.125,-24.0625,24.125
426.0,1.5869140625,-18.61572265625,-33.69140625,-0.0467543565172277,0.8075197607348857,-0.5293130283516954,-16.8125,-24.4375,22.0625
426.5,7.26318359375,4.0283203125,28.38134765625,-0.1558885464033936,0.7447737052522355,-0.489028595843379,10.625,-29.3125,16.0625
427.0,29.052734375,46.81396484375,89.7216796875,0.6883754997405926,0.488540299691763,-0.6184270760216071,18.4375,-22.875,10.0625
427.5,1.0986328125,10.986328125,-6.34765625,0.8785668507950072,0.2102114932706686,-0.4401989806817835,1.125,-32.0,15.25
428.0,0.18310546875,-0.244140625,1.15966796875,0.8994415112765892,0.141483809930723,-0.4430066835535752,-20.75,-24.4375,20.125
428.5,-1.77001953125,-0.6103515625,-1.8310546875,0.881130405590991,0.1752983184301279,-0.4167607654042176,-24.625,-21.8125,20.5
429.0,0.67138671875,-1.28173828125,-0.54931640625,0.8854029969176306,0.1721243934446241,-0.4270149845881527,-24.625,-22.5625,18.125
429.5,-2.62451171875,-1.8310546875,3.35693359375,0.8733176671651357,0.1706595049897763,-0.4100466933194983,-22.125,-24.8125,18.5
430.0,15.93017578125,-26.0009765625,-11.77978515625,0.86855677968688,0.1470992156743064,-0.4882961516159551,-24.25,-25.9375,20.5
430.5,7.99560546875,-31.6162109375,-9.033203125,0.8528092287972655,0.2002014221625415,-0.6396679586169012,-23.5,-22.5625,20.9375
431.0,-7.75146484375,-87.0361328125,-33.3251953125,0.1584521011993774,0.2652668843653676,-0.7619861445966979,-20.75,-22.875,22.5
431.5,-17.7001953125,34.24072265625,10.31494140625,-0.1380657368694113,0.3277687917722098,-0.684469130527665,-8.0,-24.8125,26.5
432.0,0.244140625,84.04541015625,40.71044921875,0.5311441389202551,0.4325083162938322,-0.7113254188665425,11.0,-23.6875,22.875
432.5,0.9765625,4.08935546875,0.48828125,0.7652821436201056,0.3336283455916013,-0.5687429425946837,-1.3125,-28.625,20.9375
433.0,-0.6103515625,-15.56396484375,-20.44677734375,0.7593005157628101,0.4004028443250831,-0.5645924253059481,-15.75,-24.4375,23.6875
433.5,-36.19384765625,-12.6953125,-92.46826171875,0.4069948423718985,0.6803186132389294,-0.6009704886013367,-19.25,-24.8125,21.6875
434.0,4.08935546875,-9.82666015625,-24.0478515625,-0.1264687032685323,0.8532975249488814,-0.4398327585680715,-9.4375,-28.625,22.0625
434.5,50.59814453125,34.48486328125,108.0322265625,0.0084231086153752,0.6513870662556841,-0.3868526261177404,14.5625,-30.125,12.125
435.0,-9.58251953125,9.46044921875,48.15673828125,0.8434095278786584,0.3131199072237312,-0.4665669728690451,18.4375,-25.5625,13.3125
435.5,3.84521484375,5.37109375,-5.9814453125,0.9148228400524918,0.0885036774803918,-0.4376354258857997,-14.0,-27.0625,24.5
436.0,6.65283203125,-2.0751953125,-3.173828125,0.901882992034669,0.0720236823633533,-0.4201788384655293,-24.625,-22.1875,18.5
436.5,-0.42724609375,-0.1220703125,-0.30517578125,0.9016388439588612,0.0668965727713858,-0.4284798730430005,-26.375,-22.5625,17.6875
437.0,6.77490234375,-37.109375,-33.87451171875,0.8983428449354534,0.2237617114780114,-0.5791192358165227,-26.375,-19.875,19.3125
437.5,-55.35888671875,-10.31494140625,-100.15869140625,0.326181829279458,0.7187719351786859,-0.6705526902066103,-24.9375,-19.875,18.5
438.0,2.50244140625,-14.70947265625,-21.3623046875,-0.1855525376140629,0.825830866420484,-0.4167607654042176,-9.0625,-27.8125,20.9375
438.5,70.98388671875,26.611328125,83.251953125,-0.0351573229163487,0.6711630603961303,-0.3736686300241096,13.8125,-28.625,13.3125
439.0,-10.498046875,-1.5869140625,48.64501953125,0.8229010895107883,0.4195684682760094,-0.5396893215735343,18.75,-25.5625,11.3125
439.5,-0.54931640625,-1.52587890625,-1.40380859375,0.8642841883602405,0.2705160679952391,-0.4334849085970641,-10.8125,-29.3125,24.125
440.0,0.06103515625,1.77001953125,1.0986328125,0.8669698171941282,0.2401196325571459,-0.4306772057252723,-20.0,-23.6875,22.0625
440.5,0.54931640625,-4.39453125,-0.67138671875,0.881008331553087,0.2321848200933866,-0.4537491988891262,-21.0,-25.5625,19.3125
441.0,6.16455078125,-109.55810546875,-17.27294921875,0.5521408734397412,0.2957853938413647,-0.78225043488876,-22.125,-24.8125,22.5
441.5,-10.7421875,-34.97314453125,-16.78466796875,-0.1502731406598101,0.4543595690786462,-0.8034913174840541,-19.25,-24.4375,22.0625
442.0,-12.39013671875,75.37841796875,39.12353515625,-0.1036408581804864,0.3784295175023652,-0.6067079683828241,5.375,-26.375,23.6875
442.5,36.9873046875,27.7099609375,1.953125,0.7956785790581988,0.3733024079103976,-0.6759239478743858,15.1875,-25.1875,16.0625
443.0,0.6103515625,-1.77001953125,-0.18310546875,0.8452406384472182,0.3170262764366588,-0.4221320230719931,-8.3125,-30.125,23.6875
443.5,0.42724609375,1.220703125,3.7841796875,0.8706320383312479,0.2909024323252052,-0.4113895077364422,-17.5,-23.6875,21.6875
444.0,0.1220703125,-0.30517578125,-0.91552734375,0.870021668141728,0.2879726554155095,-0.3900265511032441,-19.625,-26.75,20.125
444.5,0.732421875,0.91552734375,-0.42724609375,0.8650166325876644,0.2850428785058138,-0.4000366222113712,-21.0,-23.6875,22.0625
445.0,1.03759765625,0.1220703125,-0.244140625,0.8662373729667043,0.2866298409985656,-0.3961302529984435,-21.0,-25.1875,20.5
445.5,2.62451171875,-0.06103515625,2.44140625,0.8614764854884488,0.2852870265816217,-0.3971068453016754,-21.0,-25.5625,19.75
446.0,2.38037109375,-0.18310546875,6.8359375,0.8746604815820795,0.2319406720175786,-0.4085818048646504,-21.0,-25.9375,19.75
446.5,0.9765625,-0.244140625,1.953125,0.8818628498184149,0.2125308999908444,-0.41224402600177,-21.375,-23.6875,19.3125
447.0,-0.1220703125,-0.3662109375,2.0751953125,0.8816187017426069,0.1853083895382549,-0.4199346903897213,-23.125,-22.5625,18.5
447.5,0.6103515625,0.9765625,-3.2958984375,0.880886257515183,0.2126529740287484,-0.4190801721243934,-23.875,-23.6875,21.6875
448.0,0.3662109375,-0.67138671875,1.28173828125,0.8729514450514236,0.2127750480666524,-0.423841059602649,-22.8125,-22.1875,21.6875
448.5,-1.40380859375,0.06103515625,-0.732421875,0.8751487777336955,0.2191228980376598,-0.4472792748802148,-22.125,-23.3125,18.5
449.0,34.11865234375,0.8544921875,-58.837890625,0.9055452131717888,0.325205236976226,-0.5620288705099643,-24.25,-24.0625,17.6875
449.5,-21.1181640625,-42.90771484375,-2.3193359375,-0.1116977446821497,0.2260811181981872,-0.5534836878566851,-21.375,-24.4375,21.3125
450.0,56.21337890625,51.513671875,-44.37255859375,0.8767357402264473,0.7378154850917081,-0.9294717246009704,-4.125,-21.375,30.125
450.5,-14.22119140625,-42.236328125,-84.16748046875,0.3127536851100192,0.815454573198645,-0.5610522782067324,-0.1875,-23.6875,24.5
451.0,-2.685546875,-0.48828125,-1.28173828125,-0.1916562395092623,0.804345835749382,-0.413342692342906,-6.5625,-27.0625,24.9375
451.5,43.64013671875,41.1376953125,154.72412109375,0.6627399517807551,0.6811731315042573,-0.5907162694174016,16.625,-25.1875,14.875
452.0,-5.43212890625,-27.9541015625,7.6904296875,0.8845484786523026,0.2719809564500869,-0.5788750877407147,12.0625,-27.0625,15.6875
452.5,-21.1181640625,-69.82421875,-24.35302734375,0.1478316599017304,0.2038636432996612,-0.7572252571184424,-21.0,-24.8125,18.125
453.0,4.638671875,90.51513671875,18.98193359375,0.195684682760094,0.4113895077364422,-0.836817529831843,-11.1875,-24.4375,24.125
453.5,19.59228515625,-68.603515625,67.0166015625,0.7782219916379284,0.1138950773644215,-0.7459944456312754,9.25,-26.375,22.5
454.0,14.70947265625,8.544921875,14.404296875,0.6537064729758598,-0.2866298409985656,-0.8081301309244057,-12.5625,-25.1875,23.3125
454.5,-18.9208984375,5.0048828125,4.08935546875,0.67299417096469,-0.3024994659260842,-0.6353953672902616,-15.375,-11.5625,33.3125
455.0,-22.705078125,10.8642578125,-4.7607421875,0.6969206823938718,-0.1530808435316019,-0.7215796380504776,-19.25,-4.3125,33.3125
455.5,0.732421875,3.35693359375,-19.59228515625,0.7783440656758324,-0.1814020203253273,-0.6701864680928984,-22.8125,-10.0625,30.125
456.0,7.01904296875,-37.7197265625,-44.61669921875,0.6805627613147374,0.1329386272774437,-0.7446516312143315,-21.0,-13.4375,28.875
456.5,-26.67236328125,-42.29736328125,-60.1806640625,0.1820123905148472,0.5089266640217291,-0.7628406628620258,-20.75,-16.5,28.125
457.0,-14.83154296875,3.5400390625,-57.373046875,0.1577196569719535,0.7037568285164952,-0.7643055513168737,-8.3125,-21.0,27.3125
457.5,-1.52587890625,1.3427734375,8.4228515625,-0.1185338908047731,0.6585894344920195,-0.6701864680928984,8.875,-27.4375,20.5
458.0,32.28759765625,13.73291015625,106.26220703125,0.6100039674062319,0.6261177404095584,-0.586809900204474,14.5625,-22.875,17.6875
458.5,5.79833984375,1.64794921875,-2.74658203125,0.9105502487258522,0.2689291055024873,-0.4463026825769829,10.3125,-25.9375,20.9375
459.0,-3.41796875,-81.298828125,-116.8212890625,0.6689657277138584,0.4991607409894101,-0.5887630848109379,-18.875,-24.8125,18.9375
459.5,0.54931640625,0.9765625,-47.66845703125,0.0069582201605273,0.641132847071749,-0.6538285470137638,-24.9375,-23.3125,20.125
460.0,-6.9580078125,8.056640625,-19.22607421875,-0.1470992156743064,0.6192815942869351,-0.6373485518967253,4.625,-26.75,21.6875
460.5,31.79931640625,-6.2255859375,92.10205078125,0.1142612994781334,0.565202795495468,-0.7524643696401868,15.9375,-22.1875,23.6875
461.0,-14.16015625,69.76318359375,32.5927734375,0.7783440656758324,0.3751335184789575,-0.836451307718131,16.625,-21.8125,22.875
461.5,-16.29638671875,-61.21826171875,-108.94775390625,0.3896603289895322,0.5630054628131962,-0.6280709250160222,1.875,-25.9375,27.75
462.0,-30.6396484375,9.1552734375,-29.541015625,-0.2211981566820276,0.5639820551164281,-0.6484572893459883,-15.0625,-24.8125,24.125
462.5,3.23486328125,-13.5498046875,18.06640625,-0.2026429029206213,0.6113467818231757,-0.6602984710226752,13.8125,-22.1875,19.3125
463.0,20.751953125,68.05419921875,138.73291015625,0.7031464583269753,0.6695760979033784,-0.6864223151341289,19.8125,-18.75,16.875
463.5,16.845703125,4.21142578125,3.72314453125,0.8744163335062716,0.249763481551561,-0.4314096499526963,10.3125,-26.375,19.3125
464.0,-2.38037109375,1.8310546875,0.3662109375,0.8834498123111667,0.2157048249763481,-0.4039429914242988,-22.8125,-26.375,18.9375
464.5,1.28173828125,6.04248046875,17.4560546875,0.93374431592761,-0.0007324442274239,-0.4804834131900998,-22.8125,-22.5625,22.0625
465.0,-18.798828125,8.1787109375,-26.79443359375,0.7541734061708426,0.2269356364635151,-0.3099459822382275,-22.8125,-24.8125,22.5
465.5,-20.44677734375,5.859375,30.82275390625,0.935331278420362,0.0491958372753074,-0.3003021332438124,-30.25,-17.625,20.5
466.0,-3.35693359375,-9.70458984375,18.9208984375,0.8858912930692465,-0.1525925473799859,-0.2902920621356853,-26.0,-24.0625,18.125
466.5,-3.60107421875,7.87353515625,7.6904296875,0.9203161717581714,0.097781304361095,-0.3216650898770104,-28.4375,-25.5625,14.875
467.0,6.7138671875,1.03759765625,-6.591796875,0.9956358531449324,0.1375774407177953,-0.238288521988586,-27.375,-24.4375,12.5
467.5,6.04248046875,-1.15966796875,-0.18310546875,0.9314249092074344,0.1003448591570787,-0.3483993041779839,-28.4375,-21.8125,12.5
468.0,-0.06103515625,-0.6103515625,1.5869140625,0.936429944761498,0.1167027802362132,-0.326181829279458,-27.375,-23.6875,11.6875
468.5,3.2958984375,1.5869140625,17.08984375,0.9682912686544388,-0.0028077028717917,-0.2487868892483291,-27.0625,-24.4375,11.6875
469.0,19.47021484375,-23.86474609375,-20.20263671875,0.8353526413769952,0.3602404858546708,-0.4044312875759148,-27.375,-25.1875,12.5
469.5,-36.7431640625,-34.24072265625,-83.0078125,0.576921903134251,0.4388561662648396,-0.6508987701040682,-29.875,-24.8125,14.875
470.0,4.0283203125,-10.55908203125,-20.56884765625,0.3848994415112766,0.6617633594775231,-0.6875209814752647,-22.125,-23.3125,26.5
470.5,10.1318359375,-10.31494140625,-3.0517578125,0.3009125034333323,0.6584673604541155,-0.7109591967528306,-5.5625,-32.8125,22.0625
471.0,-26.123046875,-21.78955078125,-84.04541015625,-0.0850856044190801,0.6670125431073947,-0.619647816400647,0.375,-29.75,20.9375
