time,SACR_gyr_x,SACR_gyr_y,SACR_gyr_z,SACR_acc_x,SACR_acc_y,SACR_acc_z,SACR_mag_x,SACR_mag_y,SACR_mag_z
0.0,0.1220703125,-0.06103515625,-0.18310546875,0.9541306802575762,-0.0300302133243812,0.2812585833307901,-30.9375,2.6875,-37.6875
0.5,0.30517578125,0.0,-0.06103515625,0.9535203100680564,-0.0290536210211493,0.2815027314065981,-30.5625,3.0,-40.5625
1.0,0.1220703125,-0.1220703125,0.0,0.9538865321817682,-0.0296639912106692,0.2843104342783898,-31.3125,2.3125,-32.8125
1.5,0.06103515625,-0.1220703125,-0.18310546875,0.9543748283333842,-0.0292977690969573,0.2854091006195257,-30.5625,2.6875,-40.5625
2.0,-0.18310546875,-0.06103515625,-0.30517578125,0.9552293465987122,-0.0294198431348612,0.2860194708090456,-31.6875,2.3125,-38.5625
2.5,0.79345703125,-0.6103515625,-0.1220703125,0.9535203100680564,-0.0289315469832453,0.2880947294534135,-30.5625,1.9375,-41.75
3.0,-0.6103515625,0.1220703125,-0.42724609375,0.957182531205176,-0.0307626575518051,0.2840662862025818,-31.6875,2.6875,-41.75
3.5,0.06103515625,-0.18310546875,-0.06103515625,0.954863124485,-0.0284432508316293,0.28186895352031,-32.3125,1.9375,-39.375
4.0,-0.1220703125,0.48828125,-0.244140625,0.9530320139164404,-0.0263679921872615,0.2799157689138462,-32.3125,2.3125,-40.9375
4.5,3.72314453125,-4.0283203125,-0.732421875,0.9592577898495438,-0.0180669576097903,0.2670979949339274,-31.9375,0.75,-34.0625
5.0,0.3662109375,-0.42724609375,0.244140625,0.9606006042664876,-0.032227546006653,0.2584307382427442,-30.9375,0.375,-38.5625
5.5,-1.46484375,1.52587890625,-0.06103515625,0.9593798638874478,-0.0391857661671803,0.2784508804589984,-32.6875,2.3125,-40.9375
6.0,0.79345703125,-1.15966796875,-0.732421875,0.967436750389111,-0.0260017700735496,0.2795495468001343,-31.3125,0.0,-36.875
6.5,-0.54931640625,0.67138671875,-0.3662109375,0.956450086977752,-0.0372325815607165,0.2887050996429334,-32.6875,0.75,-37.75
7.0,0.3662109375,0.1220703125,0.30517578125,0.9586474196600238,-0.0267342143009735,0.2795495468001343,-31.9375,0.75,-40.1875
7.5,0.06103515625,0.54931640625,0.48828125,0.9580370494705038,-0.0355235450300607,0.2730796227912229,-29.4375,3.0,-37.75
8.0,-0.18310546875,-0.6103515625,1.03759765625,0.9529099398785364,-0.0274666585283974,0.2545243690298165,-30.9375,0.0,-36.9375
8.5,-0.54931640625,1.220703125,0.244140625,0.9579149754325998,-0.0357676931058687,0.2772301400799585,-30.1875,-0.375,-40.1875
9.0,0.30517578125,2.50244140625,0.732421875,0.957548753318888,-0.0240485854670857,0.2591631824701682,-32.6875,1.125,-37.3125
9.5,0.48828125,-2.86865234375,-0.8544921875,0.9612109744560076,-0.0238044373912778,0.2542802209540086,-30.9375,1.125,-40.5625
10.0,-0.30517578125,4.8828125,0.8544921875,0.956938383129368,-0.0194097720267342,0.2420728171636097,-31.9375,-0.375,-39.375
10.5,-0.18310546875,0.244140625,-0.42724609375,0.9599902340769676,-0.0396740623187963,0.2778405102694784,-33.4375,2.6875,-36.875
11.0,5.126953125,-2.0751953125,-0.3662109375,0.9536423841059604,-0.0118411816766869,0.2675862910855434,-31.6875,-0.75,-37.3125
11.5,-1.03759765625,0.0,-0.1220703125,0.9602343821527756,-0.0139164403210547,0.260628070925016,-31.9375,-0.375,-39.8125
12.0,-0.3662109375,-0.67138671875,0.18310546875,0.9596240119632558,-0.032471694082461,0.2653889584032716,-33.4375,1.9375,-38.9375
12.5,-0.6103515625,1.89208984375,-1.5869140625,0.9629200109866634,-0.0020752586443678,0.2302316354869228,-33.0625,0.75,-38.9375
13.0,-1.220703125,1.220703125,0.9765625,0.9580370494705038,-0.0058595538193914,0.261116367076632,-32.3125,1.5,-34.875
13.5,-0.30517578125,0.244140625,0.18310546875,0.95547349467452,-0.0169682912686544,0.2725913266396069,-31.9375,-0.375,-40.1875
14.0,0.0,0.42724609375,-0.06103515625,0.957060457167272,-0.0166020691549424,0.2735679189428388,-30.9375,1.9375,-40.1875
14.5,0.1220703125,0.06103515625,-0.244140625,0.9537644581438642,-0.0249031037324137,0.2691732535782952,-30.5625,3.0,-38.5625
15.0,-0.18310546875,-0.18310546875,-0.1220703125,0.955595568712424,-0.031617175817133,0.2730796227912229,-30.1875,1.9375,-39.375
15.5,0.0,0.0,-0.3662109375,0.9553514206366162,-0.0225836970122379,0.2763756218146306,-31.6875,1.5,-37.75
16.0,-1.3427734375,1.03759765625,0.79345703125,0.9632862331003754,-0.0300302133243812,0.2587969603564561,-31.6875,0.75,-37.3125
16.5,1.40380859375,3.47900390625,0.1220703125,0.9531540879543444,-0.0069582201605273,0.2988372447889645,-29.4375,1.125,-39.375
17.0,-1.220703125,3.11279296875,-1.46484375,0.95608386486404,-0.0450453199865718,0.2874843592638935,-30.5625,0.375,-36.125
17.5,-1.5869140625,1.15966796875,-0.67138671875,0.9582811975463118,-0.0244148075807977,0.2968840601825007,-31.9375,1.9375,-38.125
18.0,-3.0517578125,-0.30517578125,-0.732421875,0.9662160100100712,-0.0384533219397564,0.3090914639728995,-31.3125,0.0,-38.125
18.5,-0.8544921875,2.74658203125,-0.1220703125,0.9621875667592394,-0.0365001373332926,0.2807702871791742,-33.8125,1.9375,-38.125
19.0,1.89208984375,-1.708984375,0.48828125,0.9620654927213356,-0.0350352488784447,0.2689291055024873,-33.8125,1.5,-37.3125
19.5,-0.244140625,0.30517578125,0.42724609375,0.9607226783043916,-0.032349620044557,0.2655110324411756,-31.6875,1.5,-37.3125
20.0,-0.42724609375,-2.3193359375,-0.67138671875,0.9762260811181982,-0.0295419171727652,0.3028656880397961,-30.1875,2.3125,-38.9375
20.5,-6.53076171875,5.92041015625,-0.54931640625,0.957426679280984,-0.0261238441114535,0.2547685171056245,-32.6875,0.75,-38.5625
21.0,2.8076171875,-3.173828125,-0.42724609375,0.9591357158116398,-0.053712576677755,0.2529374065370647,-31.9375,1.125,-34.875
21.5,0.244140625,2.197265625,0.6103515625,0.9608447523422956,-0.0155034028138065,0.2504959257789849,-32.6875,-1.0625,-38.125
22.0,0.42724609375,0.79345703125,0.1220703125,0.9519333475753043,-0.0170903653065584,0.260994293038728,-31.9375,1.125,-38.9375
22.5,-0.1220703125,0.91552734375,1.0986328125,0.954496902371288,-0.021240882595294,0.2649006622516556,-31.6875,1.9375,-40.1875
23.0,-0.6103515625,-0.06103515625,0.6103515625,0.95669423505356,-0.0253913998840296,0.2705160679952391,-30.1875,3.375,-39.75
23.5,-0.244140625,0.54931640625,-0.18310546875,0.9531540879543444,-0.0247810296945097,0.2756431775872066,-31.6875,0.75,-40.5625
24.0,13.427734375,0.91552734375,2.38037109375,0.9531540879543444,-0.0260017700735496,0.2879726554155095,-29.4375,0.75,-40.625
24.5,-7.32421875,-0.67138671875,-1.77001953125,0.9475386822107608,-0.0408948026978362,0.2868739890743736,-30.5625,-0.375,-35.6875
25.0,-1.28173828125,0.244140625,-1.15966796875,0.9527878658406324,0.0021973326822717,0.2846766563921018,-31.9375,1.9375,-38.5625
25.5,1.89208984375,-0.1220703125,0.48828125,0.9543748283333842,-0.0260017700735496,0.2789391766106143,-31.3125,0.375,-40.1875
26.0,0.244140625,0.30517578125,-0.244140625,0.9538865321817682,-0.0393078402050843,0.2862636188848537,-32.3125,0.0,-36.5
26.5,-5.615234375,-0.54931640625,-1.03759765625,0.9526657918027284,-0.0231940672017578,0.2865077669606616,-31.3125,1.125,-38.5625
27.0,3.35693359375,0.42724609375,0.91552734375,0.95547349467452,-0.0194097720267342,0.281991027558214,-33.0625,1.5,-40.1875
27.5,0.42724609375,0.244140625,-0.8544921875,0.9522995696890164,-0.0297860652485732,0.2845545823541978,-31.9375,0.0,-36.0625
28.0,-2.99072265625,0.06103515625,-0.732421875,0.9522995696890164,-0.0251472518082216,0.2872402111880855,-29.4375,0.0,-36.875
28.5,-0.1220703125,-0.06103515625,0.3662109375,0.9536423841059604,-0.0278328806421094,0.282723471785638,-31.9375,1.5,-36.5
29.0,4.33349609375,-0.06103515625,0.6103515625,0.9519333475753043,-0.0250251777703176,0.2808923612170781,-29.8125,0.75,-40.5625
29.5,0.6103515625,-0.30517578125,-0.48828125,0.9513229773857844,-0.0222174748985259,0.2858973967711417,-30.9375,0.75,-40.625
30.0,0.244140625,0.48828125,-0.3662109375,0.9529099398785364,-0.0301522873622852,0.2879726554155095,-33.0625,0.75,-36.125
30.5,0.67138671875,-0.1220703125,0.1220703125,0.9541306802575762,-0.0235602893154698,0.2800378429517502,-31.6875,1.5,-37.6875
31.0,0.6103515625,0.06103515625,0.3662109375,0.9535203100680564,-0.0269783623767815,0.2868739890743736,-30.9375,0.0,-38.5625
31.5,0.244140625,0.18310546875,-0.244140625,0.9535203100680564,-0.0273445844904934,0.2851649525437177,-30.1875,0.75,-38.125
32.0,-0.06103515625,0.0,0.06103515625,0.9519333475753043,-0.0295419171727652,0.2851649525437177,-31.6875,0.0,-36.9375
32.5,0.3662109375,-0.30517578125,-0.1220703125,0.9526657918027284,-0.0279549546800134,0.2854091006195257,-31.9375,1.5,-36.5
33.0,-1.46484375,0.3662109375,0.42724609375,0.9586474196600238,-0.0311288796655171,0.2662434766685995,-30.5625,-0.375,-39.375
33.5,-1.708984375,3.0517578125,-0.42724609375,0.9603564561906796,-0.0354014709921567,0.282235175634022,-32.6875,-0.375,-37.3125
34.0,0.244140625,0.67138671875,0.30517578125,0.955595568712424,-0.0292977690969573,0.2744224372081667,-32.3125,-0.375,-38.9375
34.5,-1.89208984375,2.0751953125,-0.54931640625,0.9623096407971434,-0.0335703604235969,0.2550126651814325,-31.6875,1.125,-37.6875
35.0,-0.732421875,0.0,-1.15966796875,0.95669423505356,-0.0361339152195806,0.2724692526017029,-30.1875,1.5,-38.5625
35.5,0.79345703125,-1.89208984375,-0.30517578125,0.9648731955931272,-0.0509048738059633,0.2735679189428388,-31.6875,-0.75,-38.9375
36.0,3.72314453125,-1.64794921875,-2.5634765625,0.9612109744560076,-0.0192876979888302,0.2376781517990661,-31.9375,0.375,-38.9375
36.5,-1.15966796875,1.03759765625,0.6103515625,0.9598681600390636,-0.0279549546800134,0.2547685171056245,-31.3125,1.5,-39.75
37.0,0.67138671875,0.30517578125,-0.48828125,0.9597460860011596,-0.0181890316476943,0.2575762199774163,-34.125,0.375,-36.125
37.5,-1.28173828125,0.3662109375,-0.3662109375,0.9553514206366162,-0.0295419171727652,0.282601397747734,-31.9375,0.75,-38.5625
38.0,1.15966796875,-2.99072265625,-1.15966796875,0.9659718619342632,-0.02111880855739,0.2375560777611621,-31.9375,-0.75,-35.25
38.5,-0.732421875,1.3427734375,0.244140625,0.9613330484939115,-0.0262459181493575,0.2506179998168889,-31.9375,1.125,-39.75
39.0,0.18310546875,-0.06103515625,0.0,0.9609668263801996,-0.020752586443678,0.2545243690298165,-33.0625,0.375,-37.3125
39.5,-0.3662109375,-0.42724609375,0.732421875,0.95669423505356,0.010132145146031,0.239143040253914,-31.9375,1.5,-39.375
40.0,6.8359375,0.244140625,0.54931640625,0.9581591235084078,-0.0501724295785393,0.2548905911435285,-31.9375,0.375,-36.5
40.5,-6.89697265625,0.0,-2.5634765625,0.9582811975463118,-0.0152592547379985,0.2590411084322642,-33.8125,-1.0625,-36.5
41.0,-2.0751953125,1.8310546875,1.03759765625,0.9627979369487594,-0.0089114047669911,0.2423169652394177,-33.8125,0.0,-36.875
41.5,3.41796875,-0.244140625,0.0,0.9619434186834316,-0.0151371807000946,0.2528153324991607,-33.0625,0.75,-35.25
42.0,-2.01416015625,0.79345703125,-0.48828125,0.9624317148350474,-0.020874660481582,0.261116367076632,-33.0625,1.125,-35.25
42.5,-0.06103515625,0.06103515625,0.0,0.9602343821527756,-0.0240485854670857,0.2551347392193365,-33.0625,1.9375,-38.125
43.0,0.0,0.06103515625,-0.06103515625,0.9601123081148716,-0.0201422162541581,0.2557451094088565,-33.0625,1.9375,-36.9375
43.5,0.06103515625,-0.06103515625,-0.244140625,0.9596240119632558,-0.0203863643299661,0.2567217017120883,-32.3125,1.125,-40.1875
44.0,0.1220703125,0.0,-0.06103515625,0.9609668263801996,-0.02172917874691,0.2580645161290322,-32.6875,0.0,-37.75
44.5,1.52587890625,-1.8310546875,-0.54931640625,0.9606006042664876,-0.0223395489364299,0.2702719199194311,-31.9375,0.75,-37.3125
45.0,-2.13623046875,4.69970703125,1.3427734375,0.955717642750328,-0.0228278450880459,0.249763481551561,-31.3125,1.125,-40.1875
45.5,1.708984375,-3.11279296875,-0.8544921875,0.9598681600390636,-0.021607104709006,0.2905362102114933,-31.9375,1.5,-39.8125
46.0,-1.03759765625,1.46484375,-0.30517578125,0.9630420850245676,-0.0228278450880459,0.2641682180242317,-33.4375,0.75,-38.5625
46.5,-0.1220703125,0.42724609375,-0.1220703125,0.9658497878963592,-0.0338145084994048,0.2789391766106143,-31.3125,0.75,-38.9375
47.0,-0.18310546875,-0.1220703125,-0.6103515625,0.9582811975463118,-0.0175786614581743,0.2597735526596881,-31.9375,0.375,-38.125
47.5,-0.1220703125,-2.62451171875,-0.8544921875,0.9653614917447432,-0.0408948026978362,0.260872219000824,-31.9375,0.75,-34.875
48.0,0.54931640625,0.244140625,-0.06103515625,0.9592577898495438,-0.0137943662831507,0.2378002258369701,-32.3125,1.5,-37.3125
48.5,1.46484375,-2.0751953125,-2.5634765625,0.9669484542374952,-0.0312509537034211,0.2458571123386334,-33.0625,0.75,-38.5625
49.0,0.06103515625,2.685546875,0.06103515625,0.9647511215552232,0.0001220740379039,0.2461012604144413,-32.6875,1.125,-38.5625
49.5,-0.42724609375,-0.30517578125,-0.91552734375,0.9649952696310312,-0.0195318460646382,0.2585528122806482,-33.4375,0.0,-39.375
50.0,-0.244140625,-0.3662109375,-0.18310546875,0.9634083071382794,-0.0139164403210547,0.2359691152684103,-31.9375,0.375,-39.0
50.5,-0.18310546875,0.1220703125,0.18310546875,0.966582232123783,-0.02111880855739,0.2478102969450972,-32.6875,0.75,-39.375
51.0,-0.91552734375,0.9765625,0.54931640625,0.9624317148350474,-0.0148930326242866,0.2469557786797692,-32.6875,0.0,-38.9375
51.5,1.64794921875,-0.06103515625,-1.15966796875,0.9581591235084078,-0.0198980681783501,0.2524491103854487,-31.6875,1.125,-35.6875
52.0,0.30517578125,2.197265625,-0.54931640625,0.957548753318888,-0.0268562883388775,0.2736899929807428,-31.6875,0.75,-36.125
52.5,-1.0986328125,0.8544921875,0.79345703125,0.9585253456221198,-0.032593768120365,0.2840662862025818,-33.0625,1.5,-39.375
53.0,0.06103515625,-2.9296875,-0.06103515625,0.9584032715842158,-0.0275887325663014,0.2575762199774163,-33.0625,0.0,-38.125
53.5,-2.197265625,1.953125,0.54931640625,0.9651173436689352,-0.0087893307290871,0.2545243690298165,-33.0625,-0.375,-36.9375
54.0,-0.06103515625,-0.3662109375,0.244140625,0.9603564561906796,-0.0241706595049897,0.2546464430677205,-33.4375,2.3125,-40.1875
54.5,-0.1220703125,-0.06103515625,0.0,0.9585253456221198,-0.0247810296945097,0.2547685171056245,-31.9375,1.9375,-35.6875
55.0,0.1220703125,0.18310546875,-0.06103515625,0.9612109744560076,-0.0245368816187017,0.2523270363475448,-33.4375,0.75,-37.75
55.5,0.42724609375,-0.06103515625,0.06103515625,0.9610889004181036,-0.0239265114291818,0.261238441114536,-31.9375,1.5,-38.125
56.0,-0.1220703125,-0.1220703125,-0.18310546875,0.9606006042664876,-0.0230719931638538,0.2585528122806482,-33.0625,1.9375,-34.5
56.5,-0.06103515625,0.54931640625,0.0,0.9630420850245676,-0.021240882595294,0.2546464430677205,-32.3125,1.5,-37.3125
57.0,-0.3662109375,0.06103515625,0.1220703125,0.9603564561906796,-0.02172917874691,0.249763481551561,-32.3125,1.125,-36.5
57.5,-0.06103515625,0.0,-0.06103515625,0.9613330484939115,-0.0245368816187017,0.2539139988402966,-33.0625,1.125,-36.125
58.0,0.18310546875,0.0,-0.06103515625,0.9609668263801996,-0.0235602893154698,0.2545243690298165,-31.9375,1.5,-37.75
58.5,0.30517578125,0.1220703125,-0.06103515625,0.9610889004181036,-0.0233161412396618,0.2524491103854487,-33.4375,0.75,-36.5
59.0,0.18310546875,0.0,0.0,0.9597460860011596,-0.0236823633533738,0.2550126651814325,-33.4375,1.9375,-38.125
59.5,-0.1220703125,0.0,0.0,0.9610889004181036,-0.0269783623767815,0.2550126651814325,-31.3125,0.75,-36.9375
60.0,0.1220703125,-0.06103515625,-0.1220703125,0.9609668263801996,-0.0239265114291818,0.2562334055604724,-33.0625,3.0,-38.5625
60.5,0.06103515625,0.06103515625,-0.06103515625,0.9607226783043916,-0.0238044373912778,0.2534257026886807,-31.6875,1.9375,-37.3125
61.0,0.1220703125,0.1220703125,-0.18310546875,0.9626758629108554,-0.0222174748985259,0.2561113315225684,-31.6875,0.75,-36.5
61.5,0.18310546875,0.0,-0.1220703125,0.9612109744560076,-0.0218512527848139,0.2520828882717368,-31.9375,0.375,-37.75
62.0,0.0,0.06103515625,-0.1220703125,0.9599902340769676,-0.0227057710501419,0.2555009613330485,-34.125,1.5,-37.3125
62.5,-0.06103515625,0.0,-0.1220703125,0.9613330484939115,-0.0236823633533738,0.2558671834467604,-31.3125,0.75,-37.75
63.0,0.0,-0.1220703125,-0.1220703125,0.9608447523422956,-0.0247810296945097,0.2550126651814325,-32.3125,1.5,-40.625
63.5,0.3662109375,-0.18310546875,-0.06103515625,0.9609668263801996,-0.0251472518082216,0.2558671834467604,-33.4375,3.0,-37.3125
64.0,0.06103515625,0.06103515625,-0.06103515625,0.9606006042664876,-0.0258796960356456,0.2544022949919126,-31.9375,1.125,-39.0
64.5,0.06103515625,0.06103515625,-0.06103515625,0.9606006042664876,-0.0242927335428937,0.2533036286507767,-32.6875,0.375,-37.3125
65.0,0.244140625,0.06103515625,-0.06103515625,0.9610889004181036,-0.0241706595049897,0.2572099978637043,-31.9375,1.5,-36.125
65.5,0.0,0.06103515625,-0.06103515625,0.9606006042664876,-0.0235602893154698,0.2552568132572405,-31.9375,2.6875,-37.3125
66.0,-0.06103515625,0.0,-0.244140625,0.9620654927213356,-0.0219733268227179,0.2555009613330485,-32.6875,0.75,-37.75
66.5,-0.18310546875,0.06103515625,-0.1220703125,0.9618213446455276,-0.0218512527848139,0.2545243690298165,-33.0625,1.5,-36.5
67.0,0.1220703125,0.06103515625,0.06103515625,0.9616992706076236,-0.0234382152775658,0.2524491103854487,-31.6875,1.9375,-38.1875
67.5,0.06103515625,-0.18310546875,-0.1220703125,0.9629200109866634,-0.0272225104525894,0.2568437757499924,-32.6875,1.5,-38.1875
68.0,0.18310546875,-0.06103515625,0.0,0.9602343821527756,-0.021240882595294,0.2530594805749687,-33.4375,1.9375,-39.0
68.5,0.18310546875,0.1220703125,-0.18310546875,0.9590136417737358,-0.0242927335428937,0.2551347392193365,-33.4375,1.125,-37.75
69.0,0.06103515625,-0.244140625,-0.06103515625,0.9602343821527756,-0.0230719931638538,0.2575762199774163,-31.9375,1.125,-36.5
69.5,-0.30517578125,0.06103515625,-0.06103515625,0.9597460860011596,-0.0219733268227179,0.2542802209540086,-32.6875,0.375,-39.8125
70.0,0.244140625,-0.30517578125,0.0,0.9604785302285836,-0.0252693258461256,0.2529374065370647,-33.4375,1.125,-37.3125
70.5,0.6103515625,-0.30517578125,-0.06103515625,0.9596240119632558,-0.0238044373912778,0.2552568132572405,-33.0625,1.125,-38.1875
71.0,0.3662109375,-0.30517578125,0.0,0.9606006042664876,-0.0251472518082216,0.2529374065370647,-32.3125,1.5,-39.8125
71.5,0.1220703125,0.18310546875,0.0,0.9642628254036072,-0.02111880855739,0.2595294045838801,-31.9375,0.75,-40.9375
72.0,0.0,0.18310546875,-0.1220703125,0.9618213446455276,-0.0250251777703176,0.2541581469161046,-32.6875,0.75,-38.1875
72.5,-0.30517578125,-0.06103515625,-0.18310546875,0.9609668263801996,-0.0240485854670857,0.2546464430677205,-33.0625,2.3125,-36.125
73.0,0.1220703125,-0.18310546875,0.0,0.9614551225318156,-0.0257576219977416,0.2540360728782006,-31.3125,3.0,-36.9375
73.5,0.18310546875,-0.244140625,-0.06103515625,0.9592577898495438,-0.0236823633533738,0.2561113315225684,-32.6875,0.0,-40.1875
74.0,-0.06103515625,-0.1220703125,-0.06103515625,0.9630420850245676,-0.0247810296945097,0.2563554795983764,-32.6875,1.9375,-38.5625
74.5,0.1220703125,0.1220703125,-0.06103515625,0.9618213446455276,-0.0250251777703176,0.2553788872951445,-33.4375,1.5,-39.8125
75.0,0.54931640625,-0.18310546875,0.06103515625,0.9591357158116398,-0.0222174748985259,0.2575762199774163,-33.4375,0.0,-35.3125
75.5,-0.30517578125,-0.06103515625,-0.1220703125,0.9607226783043916,-0.0225836970122379,0.2555009613330485,-33.4375,0.75,-35.6875
76.0,0.0,0.244140625,-0.1220703125,0.9613330484939115,-0.0261238441114535,0.2558671834467604,-30.9375,1.125,-38.125
76.5,0.3662109375,-0.30517578125,-0.1220703125,0.9587694936979276,-0.0256355479598376,0.2555009613330485,-32.6875,0.75,-36.9375
77.0,0.06103515625,0.06103515625,-0.1220703125,0.9613330484939115,-0.0242927335428937,0.2556230353709525,-34.5,1.125,-39.8125
77.5,0.0,0.0,-0.1220703125,0.9601123081148716,-0.0250251777703176,0.2579424420911282,-31.9375,0.75,-37.3125
78.0,0.244140625,0.30517578125,-0.06103515625,0.9609668263801996,-0.0260017700735496,0.2561113315225684,-31.3125,2.3125,-37.75
78.5,-0.06103515625,0.06103515625,0.0,0.9613330484939115,-0.0278328806421094,0.2574541459395123,-31.9375,1.125,-38.5625
79.0,-0.244140625,-0.06103515625,-0.1220703125,0.9599902340769676,-0.0275887325663014,0.2563554795983764,-33.8125,0.0,-37.375
79.5,0.18310546875,-0.18310546875,-0.1220703125,0.9599902340769676,-0.0267342143009735,0.2548905911435285,-31.9375,2.3125,-38.5625
80.0,0.0,-0.06103515625,-0.18310546875,0.9613330484939115,-0.0257576219977416,0.2562334055604724,-33.0625,0.375,-37.3125
80.5,0.18310546875,-0.1220703125,-0.06103515625,0.9591357158116398,-0.0234382152775658,0.2545243690298165,-33.0625,1.9375,-38.1875
81.0,-0.06103515625,0.1220703125,-0.06103515625,0.9615771965697196,-0.0261238441114535,0.2556230353709525,-32.6875,2.3125,-40.25
81.5,0.244140625,-0.06103515625,0.0,0.9604785302285836,-0.0263679921872615,0.2574541459395123,-31.3125,1.9375,-38.1875
82.0,-0.06103515625,0.0,-0.1220703125,0.9586474196600238,-0.0239265114291818,0.2587969603564561,-32.6875,0.75,-38.5625
82.5,0.06103515625,-0.06103515625,-0.18310546875,0.9593798638874478,-0.0272225104525894,0.2557451094088565,-32.6875,2.6875,-37.75
83.0,0.06103515625,0.0,-0.06103515625,0.9588915677358316,-0.0257576219977416,0.2561113315225684,-32.6875,2.3125,-36.125
83.5,0.18310546875,-0.1220703125,-0.06103515625,0.9581591235084078,-0.0241706595049897,0.2569658497878964,-32.3125,2.3125,-40.9375
84.0,0.244140625,-0.06103515625,-0.18310546875,0.9607226783043916,-0.0246589556566057,0.2546464430677205,-31.3125,3.0,-38.9375
84.5,0.244140625,-0.18310546875,-0.18310546875,0.9598681600390636,-0.0257576219977416,0.2576982940153203,-31.3125,0.375,-37.3125
85.0,0.67138671875,1.708984375,0.79345703125,0.9621875667592394,-0.020874660481582,0.2406079287087618,-33.8125,1.125,-38.125
85.5,0.3662109375,-0.54931640625,0.42724609375,0.9581591235084078,-0.0385753959776604,0.2614825891903439,-32.3125,-0.375,-35.6875
86.0,-1.77001953125,2.0751953125,0.0,0.9584032715842158,-0.0225836970122379,0.2456129642628254,-32.6875,2.3125,-37.75
86.5,0.48828125,-1.708984375,2.5634765625,0.9653614917447432,-0.0415051728873561,0.2758873256630146,-33.4375,3.8125,-36.9375
87.0,-0.54931640625,-0.91552734375,0.1220703125,0.967802972502823,-0.0549333170567949,0.2323068941312906,-32.6875,1.125,-38.5625
87.5,-0.79345703125,1.3427734375,0.67138671875,0.966460158085879,-0.0358897671437727,0.2419507431257057,-34.5,2.3125,-36.5625
88.0,-0.06103515625,0.48828125,-0.244140625,0.9602343821527756,-0.0067140720847193,0.2310861537522507,-33.0625,1.125,-39.375
88.5,-1.3427734375,1.220703125,-0.54931640625,0.9637745292519914,-0.0454115421002838,0.2670979949339274,-32.3125,2.3125,-39.0
89.0,1.28173828125,-3.11279296875,0.30517578125,0.9619434186834316,-0.0244148075807977,0.2551347392193365,-33.0625,0.75,-38.5625
89.5,-2.685546875,1.953125,0.79345703125,0.9670705282753992,-0.02111880855739,0.2485427411725211,-33.8125,-0.75,-36.5625
90.0,-0.1220703125,-0.06103515625,0.0,0.9635303811761834,-0.0251472518082216,0.2471999267555772,-33.8125,0.75,-35.3125
90.5,0.1220703125,0.42724609375,-0.1220703125,0.9646290475173191,-0.021607104709006,0.2469557786797692,-30.9375,1.5,-36.9375
91.0,-0.3662109375,0.06103515625,-0.18310546875,0.9631641590624714,-0.0278328806421094,0.2418286690878017,-32.6875,2.3125,-39.8125
91.5,0.0,0.06103515625,-0.1220703125,0.9637745292519914,-0.0241706595049897,0.2458571123386334,-33.4375,1.5,-36.125
92.0,0.244140625,-0.3662109375,-0.06103515625,0.9620654927213356,-0.0256355479598376,0.2436597796563616,-33.4375,1.5,-39.0
92.5,-0.06103515625,0.1220703125,-0.1220703125,0.9642628254036072,-0.0260017700735496,0.2426831873531296,-33.4375,1.5,-39.8125
93.0,0.06103515625,0.1220703125,-0.06103515625,0.9643848994415112,-0.0252693258461256,0.2436597796563616,-34.5,2.6875,-36.125
93.5,2.13623046875,0.67138671875,-0.30517578125,0.9695120090334788,-0.0549333170567949,0.2556230353709525,-31.9375,-0.75,-35.6875
94.0,0.42724609375,-1.15966796875,-0.244140625,0.9668263801995912,-0.0134281441694387,0.2330393383587145,-33.0625,0.75,-36.5625
94.5,-0.732421875,0.732421875,0.3662109375,0.9658497878963592,-0.0145268105105746,0.2375560777611621,-33.0625,-0.75,-38.5625
95.0,-0.3662109375,0.30517578125,-0.67138671875,0.967314676351207,-0.020996734519486,0.2414624469740897,-33.0625,0.375,-38.1875
95.5,-0.06103515625,0.244140625,-0.244140625,0.966338084047975,-0.0192876979888302,0.2408520767845698,-34.125,0.0,-38.1875
96.0,0.06103515625,0.18310546875,-0.1220703125,0.9646290475173191,-0.0203863643299661,0.2371898556474501,-33.4375,0.375,-35.6875
96.5,0.18310546875,-0.1220703125,-0.06103515625,0.9658497878963592,-0.0194097720267342,0.2370677816095462,-31.6875,1.5,-35.6875
97.0,0.0,0.06103515625,0.0,0.9651173436689352,-0.0201422162541581,0.238288521988586,-33.8125,0.75,-36.9375
97.5,-0.06103515625,0.30517578125,-0.1220703125,0.9643848994415112,-0.0168462172307504,0.238654744102298,-33.4375,0.75,-36.9375
98.0,-0.1220703125,0.0,-0.18310546875,0.9654835657826472,-0.0203863643299661,0.23902096621601,-31.9375,2.3125,-36.5
98.5,0.06103515625,0.06103515625,-0.06103515625,0.9657277138584552,-0.0233161412396618,0.2404858546708578,-34.875,1.5,-40.625
99.0,0.0,0.1220703125,-0.06103515625,0.9649952696310312,-0.021240882595294,0.2378002258369701,-32.3125,0.375,-36.5
99.5,0.1220703125,-0.06103515625,-0.06103515625,0.9647511215552232,-0.020874660481582,0.2367015594958342,-33.0625,0.375,-39.8125
100.0,0.30517578125,-0.06103515625,-0.1220703125,0.9637745292519914,-0.0206305124057741,0.2325510422070986,-34.125,1.9375,-39.0
100.5,0.3662109375,0.0,-0.18310546875,0.9660939359721672,-0.0200201422162541,0.2375560777611621,-33.4375,-0.75,-39.0
101.0,-0.1220703125,-0.6103515625,0.1220703125,0.9627979369487594,-0.0183111056855983,0.2356028931546983,-34.125,0.75,-38.1875
101.5,0.06103515625,0.3662109375,-0.18310546875,0.9660939359721672,-0.0198980681783501,0.2365794854579302,-34.875,0.0,-39.8125
102.0,0.732421875,-0.244140625,0.06103515625,0.9689016388439587,-0.0230719931638538,0.2376781517990661,-34.5,0.375,-39.8125
102.5,2.13623046875,-1.40380859375,-1.0986328125,0.9715872676778466,-0.0184331797235023,0.2393871883297219,-34.875,-0.375,-33.6875
103.0,-1.708984375,0.244140625,1.52587890625,0.9728080080568864,-0.0063478499710074,0.2077700125125889,-33.8125,-1.0625,-32.8125
103.5,-0.244140625,1.46484375,-0.244140625,0.9712210455641348,-0.0083010345774712,0.2141178624835963,-33.0625,-0.375,-35.3125
104.0,-1.46484375,2.38037109375,1.15966796875,0.967680898464919,-0.0197759941404461,0.2365794854579302,-34.5,-0.375,-36.9375
104.5,-0.9765625,0.48828125,0.244140625,0.9635303811761834,-0.0118411816766869,0.2403637806329538,-34.125,0.375,-37.75
105.0,5.126953125,-0.42724609375,-1.953125,0.9654835657826472,0.0002441480758079,0.2353587450788903,-33.4375,-1.0625,-37.75
105.5,-2.38037109375,2.9296875,0.1220703125,0.9635303811761834,-0.0251472518082216,0.2614825891903439,-31.9375,1.9375,-37.75
106.0,-3.2958984375,0.8544921875,-0.54931640625,0.9627979369487594,-0.0129398480178228,0.2224188970610675,-33.4375,-0.375,-36.5625
106.5,1.28173828125,-2.0751953125,-0.3662109375,0.955961790826136,-0.0333262123477889,0.217169713431196,-32.6875,-1.0625,-36.5625
107.0,-0.1220703125,-2.86865234375,-1.220703125,0.966460158085879,-0.0125736259041108,0.2296212652974028,-33.4375,-0.75,-37.375
107.5,1.28173828125,-2.25830078125,-2.38037109375,0.9697561571092868,0.0036622211371196,0.2480544450209051,-33.8125,0.0,-35.6875
108.0,-1.40380859375,1.46484375,0.1220703125,0.9671926023133032,-0.0145268105105746,0.2381664479506821,-33.0625,1.125,-36.125
108.5,0.30517578125,-0.244140625,-0.3662109375,0.9619434186834316,-0.021362956633198,0.2241279335917234,-33.4375,0.75,-36.9375
109.0,0.06103515625,0.06103515625,0.06103515625,0.9684133426923428,-0.0152592547379985,0.2419507431257057,-32.6875,-0.375,-36.9375
109.5,-0.06103515625,0.0,-0.06103515625,0.9646290475173191,-0.0134281441694387,0.2365794854579302,-33.8125,2.3125,-37.75
110.0,-0.18310546875,0.30517578125,-0.30517578125,0.9687795648060548,-0.0136722922452467,0.2380443739127781,-33.4375,2.6875,-35.6875
110.5,-0.1220703125,0.06103515625,-0.06103515625,0.966704306161687,-0.0140385143589587,0.2371898556474501,-32.6875,1.5,-36.125
111.0,0.244140625,0.0,-0.18310546875,0.9652394177068392,-0.0158696249275185,0.2356028931546983,-32.6875,0.75,-36.9375
111.5,-0.06103515625,-0.18310546875,-0.06103515625,0.9648731955931272,-0.0158696249275185,0.239265114291818,-33.4375,0.375,-35.3125
112.0,0.06103515625,0.244140625,-0.06103515625,0.9662160100100712,-0.0137943662831507,0.2414624469740897,-34.5,0.375,-39.0
112.5,-0.06103515625,0.30517578125,0.06103515625,0.9669484542374952,-0.0158696249275185,0.2359691152684103,-32.6875,0.375,-37.75
113.0,0.0,0.0,-0.06103515625,0.966338084047975,-0.0189214758751182,0.2396313364055299,-32.3125,-1.0625,-34.0625
113.5,0.244140625,0.0,-0.18310546875,0.9652394177068392,-0.0169682912686544,0.238898892178106,-32.3125,-1.0625,-35.3125
114.0,0.0,0.06103515625,0.0,0.9645069734794152,-0.0167241431928464,0.2357249671926023,-33.4375,0.375,-35.6875
114.5,0.18310546875,-0.06103515625,0.06103515625,0.9684133426923428,-0.0172124393444624,0.238654744102298,-32.3125,-0.375,-35.6875
115.0,0.30517578125,0.1220703125,0.0,0.9648731955931272,-0.0159916989654225,0.238776818140202,-33.0625,1.9375,-35.6875
115.5,0.1220703125,0.06103515625,-0.1220703125,0.9668263801995912,-0.0162358470412305,0.2378002258369701,-32.3125,1.125,-36.5625
116.0,0.244140625,0.18310546875,-0.1220703125,0.9649952696310312,-0.0150151066621906,0.239143040253914,-33.8125,0.0,-39.0
116.5,1.46484375,-2.50244140625,-0.732421875,0.9701223792229988,-0.0218512527848139,0.2442701498458815,-33.8125,1.5,-35.6875
117.0,-2.01416015625,4.2724609375,-0.30517578125,0.9643848994415112,-0.0113528855250709,0.2224188970610675,-33.8125,1.9375,-36.9375
117.5,0.1220703125,0.9765625,0.244140625,0.9618213446455276,-0.0163579210791344,0.2461012604144413,-30.9375,1.5,-36.9375
118.0,-0.1220703125,0.732421875,0.244140625,0.9597460860011596,-0.0172124393444624,0.2301095614490188,-32.6875,-0.75,-36.5625
118.5,1.03759765625,-2.25830078125,-0.54931640625,0.9632862331003754,-0.0161137730033265,0.2419507431257057,-34.5,0.375,-35.6875
119.0,1.220703125,-1.708984375,0.0,0.956938383129368,-0.0302743614001892,0.2426831873531296,-31.9375,0.0,-39.8125
119.5,2.01416015625,-0.06103515625,-1.708984375,0.9713431196020388,-0.010010071108127,0.2238837855159154,-32.6875,-1.4375,-37.3125
120.0,0.8544921875,0.244140625,-0.244140625,0.9659718619342632,0.0085451826532792,0.2398754844813379,-33.0625,-1.875,-34.875
120.5,-3.173828125,1.52587890625,2.197265625,0.9695120090334788,-0.0196539201025421,0.2663655507065035,-34.5,-0.375,-38.1875
121.0,-0.9765625,0.42724609375,0.48828125,0.9586474196600238,-0.0231940672017578,0.2191228980376598,-32.6875,-1.0625,-35.6875
121.5,0.67138671875,-0.42724609375,-0.91552734375,0.9607226783043916,-0.0223395489364299,0.2524491103854487,-32.3125,-2.625,-36.5625
122.0,-1.0986328125,-3.47900390625,0.1220703125,0.9514450514236884,-0.0142826624347666,0.2119205298013245,-34.875,0.0,-36.9375
122.5,-0.9765625,1.220703125,-1.89208984375,0.9626758629108554,-0.0061037018951994,0.2471999267555772,-33.4375,-0.75,-39.375
123.0,-3.662109375,3.5400390625,1.03759765625,0.968169194616535,-0.0001220740379039,0.2474440748313852,-33.0625,0.75,-38.1875
123.5,-0.244140625,-0.18310546875,0.1220703125,0.9647511215552232,-0.0054933317056794,0.2420728171636097,-33.0625,0.375,-34.5
124.0,-0.3662109375,0.42724609375,-0.1220703125,0.9641407513657032,-0.0112308114871669,0.2464674825281533,-32.6875,0.75,-36.9375
124.5,0.1220703125,0.3662109375,-0.18310546875,0.9630420850245676,-0.0148930326242866,0.2462233344523453,-31.9375,-0.375,-37.75
125.0,-0.1220703125,0.244140625,-0.1220703125,0.9615771965697196,-0.0125736259041108,0.2419507431257057,-33.8125,-0.375,-35.6875
125.5,-0.06103515625,-0.06103515625,-0.30517578125,0.9629200109866634,-0.010498367259743,0.2446363719595934,-34.5,0.75,-38.5625
126.0,-0.244140625,0.30517578125,0.0,0.9653614917447432,-0.0122074037903988,0.250129703665273,-32.6875,0.75,-37.375
126.5,0.1220703125,0.18310546875,-0.1220703125,0.9649952696310312,-0.010498367259743,0.2482985930967131,-31.9375,-0.375,-37.375
127.0,-0.42724609375,0.30517578125,-0.06103515625,0.9620654927213356,-0.0118411816766869,0.2485427411725211,-32.6875,1.125,-37.75
127.5,-0.30517578125,0.30517578125,0.06103515625,0.9620654927213356,-0.0124515518662068,0.2503738517410809,-34.125,1.125,-38.1875
128.0,0.0,0.244140625,0.0,0.9654835657826472,-0.0140385143589587,0.2504959257789849,-34.125,-0.75,-36.125
128.5,0.1220703125,-0.42724609375,0.06103515625,0.9636524552140874,-0.0146488845484786,0.2523270363475448,-32.6875,2.3125,-35.3125
129.0,-0.1220703125,-0.06103515625,-0.18310546875,0.9634083071382794,-0.0136722922452467,0.2476882229071932,-32.6875,0.75,-37.3125
129.5,0.06103515625,0.244140625,-0.18310546875,0.9645069734794152,-0.0139164403210547,0.2440260017700735,-32.6875,1.125,-40.625
130.0,0.1220703125,-0.18310546875,-0.06103515625,0.9638966032898952,-0.0128177739799188,0.2435377056184575,-31.9375,-1.875,-38.1875
130.5,0.0,-0.1220703125,0.0,0.9654835657826472,-0.0125736259041108,0.2451246681112094,-34.875,1.125,-37.375
131.0,-0.1220703125,0.42724609375,0.0,0.9645069734794152,-0.0123294778283028,0.2509842219306009,-32.3125,0.75,-36.125
131.5,-0.1220703125,0.30517578125,-0.06103515625,0.9641407513657032,-0.0150151066621906,0.2540360728782006,-33.0625,0.0,-39.0
132.0,-0.06103515625,0.0,-0.1220703125,0.9620654927213356,-0.0136722922452467,0.2489089632862331,-32.6875,-0.375,-36.5
132.5,0.18310546875,-0.06103515625,-0.1220703125,0.9635303811761834,-0.0144047364726706,0.249275185399945,-33.0625,-0.75,-38.5625
133.0,-0.1220703125,0.0,-0.18310546875,0.9646290475173191,-0.0153813287759025,0.2486648152104251,-33.0625,0.375,-41.375
133.5,0.06103515625,0.06103515625,0.0,0.9648731955931272,-0.0140385143589587,0.249763481551561,-34.5,0.75,-37.375
134.0,-0.244140625,0.06103515625,-0.06103515625,0.9629200109866634,-0.0134281441694387,0.2458571123386334,-33.8125,1.125,-38.5625
134.5,0.18310546875,0.1220703125,0.0,0.9646290475173191,-0.0125736259041108,0.2506179998168889,-32.6875,0.75,-36.125
135.0,-0.06103515625,0.18310546875,-0.1220703125,0.9618213446455276,-0.0131839960936307,0.2450025940733054,-32.6875,-0.75,-37.75
135.5,0.06103515625,-0.06103515625,-0.1220703125,0.9637745292519914,-0.0136722922452467,0.2504959257789849,-31.9375,0.0,-41.375
136.0,0.06103515625,0.0,-0.1220703125,0.9631641590624714,-0.0151371807000946,0.2509842219306009,-31.3125,1.125,-36.5625
136.5,0.244140625,-0.06103515625,-0.1220703125,0.9646290475173191,-0.0123294778283028,0.2473220007934812,-31.9375,0.75,-39.0
137.0,0.1220703125,0.0,-0.1220703125,0.9636524552140874,-0.010864589373455,0.2474440748313852,-31.6875,-0.75,-39.0
137.5,-0.18310546875,0.244140625,-0.18310546875,0.9660939359721672,-0.0140385143589587,0.249641407513657,-33.0625,-0.375,-36.9375
138.0,0.30517578125,0.06103515625,0.0,0.9646290475173191,-0.0124515518662068,0.249885555589465,-33.4375,-0.75,-35.3125
138.5,-0.244140625,0.18310546875,0.0,0.9649952696310312,-0.0144047364726706,0.2503738517410809,-33.0625,-1.4375,-36.9375
139.0,0.1220703125,-0.18310546875,-0.18310546875,0.9620654927213356,-0.0141605883968626,0.249275185399945,-32.3125,0.75,-38.1875
139.5,-1.8310546875,2.50244140625,0.3662109375,0.9615771965697196,-0.0123294778283028,0.2545243690298165,-31.6875,0.0,-38.1875
140.0,-1.64794921875,1.46484375,0.0,0.9585253456221198,-0.0184331797235023,0.2550126651814325,-31.9375,-1.875,-38.1875
140.5,0.6103515625,-2.8076171875,-0.3662109375,0.9586474196600238,-0.0123294778283028,0.2304757835627308,-31.6875,-1.0625,-36.9375
141.0,-0.06103515625,0.06103515625,-0.06103515625,0.9597460860011596,-0.0024414807580797,0.2531815546128727,-33.0625,-2.25,-36.9375
141.5,0.79345703125,-5.859375,-0.48828125,0.966704306161687,-0.0125736259041108,0.2367015594958342,-33.8125,0.375,-34.5
142.0,2.86865234375,3.0517578125,-0.6103515625,0.9714651936399428,-0.0219733268227179,0.2128971221045564,-34.875,0.75,-34.5
142.5,-1.28173828125,0.8544921875,-0.79345703125,0.9708548234504228,-0.0123294778283028,0.2380443739127781,-32.3125,0.375,-35.75
143.0,0.79345703125,-0.79345703125,-0.1220703125,0.9635303811761834,-0.0024414807580797,0.238532670064394,-34.125,0.375,-35.3125
143.5,4.39453125,1.220703125,-0.48828125,0.9646290475173191,0.0047608874782555,0.2379222998748741,-33.8125,0.375,-34.9375
144.0,-2.38037109375,3.60107421875,0.732421875,0.9610889004181036,-0.0144047364726706,0.2451246681112094,-31.6875,-0.375,-39.8125
144.5,2.8076171875,-3.2958984375,-1.3427734375,0.9651173436689352,-0.0007324442274239,0.2552568132572405,-32.6875,0.0,-38.1875
145.0,-0.8544921875,-0.244140625,1.03759765625,0.9730521561326944,-0.0048829615161595,0.2408520767845698,-33.4375,-0.375,-37.375
145.5,-4.39453125,2.74658203125,-0.91552734375,0.9585253456221198,-0.0164799951170384,0.2258369701223792,-33.8125,0.0,-37.75
146.0,1.8310546875,-1.0986328125,-1.52587890625,0.9635303811761834,-0.0145268105105746,0.2453688161870174,-33.0625,-1.4375,-35.75
146.5,4.45556640625,-4.0283203125,1.0986328125,0.9647511215552232,0.0162358470412305,0.2553788872951445,-30.9375,-0.75,-37.75
147.0,-0.42724609375,2.62451171875,-1.0986328125,0.9637745292519914,0.0129398480178228,0.2569658497878964,-34.875,-0.75,-38.1875
147.5,-0.1220703125,-0.1220703125,-0.06103515625,0.9623096407971434,0.0069582201605273,0.2464674825281533,-32.6875,-1.0625,-38.625
148.0,0.0,0.18310546875,0.06103515625,0.9623096407971434,0.010376293221839,0.2454908902249214,-33.8125,-1.0625,-40.625
148.5,0.91552734375,-0.42724609375,-0.30517578125,0.9657277138584552,0.021485030671102,0.2537919248023926,-33.0625,-0.75,-39.375
149.0,0.06103515625,-0.54931640625,-0.1220703125,0.9637745292519914,-0.0021973326822717,0.2572099978637043,-33.0625,0.375,-38.1875
149.5,0.06103515625,-0.06103515625,0.48828125,0.9616992706076236,0.0012207403790398,0.249153111362041,-31.3125,-1.4375,-36.9375
150.0,-4.45556640625,2.99072265625,2.3193359375,0.9579149754325998,-0.0115970336008789,0.2677083651234473,-33.8125,0.375,-39.8125
150.5,5.126953125,-7.4462890625,-1.52587890625,0.9669484542374952,-0.0048829615161595,0.2459791863765373,-32.6875,-1.875,-37.75
151.0,-0.48828125,-0.54931640625,1.3427734375,0.9620654927213356,0.0130619220557267,0.2288888210699789,-32.6875,0.0,-38.1875
151.5,0.244140625,0.18310546875,2.44140625,0.9637745292519914,0.0090334788048951,0.2364574114200262,-31.9375,1.5,-34.875
152.0,-0.54931640625,3.60107421875,-0.8544921875,0.9638966032898952,-0.010498367259743,0.2464674825281533,-31.9375,-0.375,-39.8125
152.5,0.48828125,-1.03759765625,-0.244140625,0.9657277138584552,-0.0240485854670857,0.2583086642048402,-31.6875,0.375,-34.9375
153.0,-1.28173828125,3.90625,1.03759765625,0.9646290475173191,-0.0255134739219336,0.2489089632862331,-32.6875,-1.0625,-37.375
153.5,-0.18310546875,0.67138671875,0.1220703125,0.9614551225318156,-0.0067140720847193,0.2447584459974975,-31.3125,-1.0625,-36.9375
154.0,-1.46484375,2.3193359375,-0.1220703125,0.9625537888729514,-0.0164799951170384,0.2524491103854487,-32.6875,2.3125,-36.125
154.5,0.18310546875,-0.79345703125,-0.18310546875,0.9606006042664876,-0.0218512527848139,0.2620929593798639,-33.0625,1.125,-36.5625
155.0,0.54931640625,-5.7373046875,-1.8310546875,0.9671926023133032,-0.0065919980468153,0.2013000885036774,-34.5,-0.375,-38.1875
155.5,-1.5869140625,1.46484375,0.244140625,0.9627979369487594,0.0013428144169438,0.2435377056184575,-33.8125,2.6875,-36.5625
156.0,-0.42724609375,0.79345703125,0.0,0.9610889004181036,-0.0115970336008789,0.2515945921201208,-33.0625,-0.375,-34.875
156.5,0.06103515625,0.0,0.1220703125,0.9637745292519914,-0.0123294778283028,0.2548905911435285,-33.4375,0.75,-39.0
157.0,0.06103515625,-0.06103515625,-0.06103515625,0.9641407513657032,-0.0115970336008789,0.2524491103854487,-34.5,-1.0625,-41.0
157.5,0.244140625,0.0,0.0,0.9646290475173191,-0.0080568865016632,0.250007629627369,-32.6875,-1.0625,-39.0
158.0,-0.06103515625,0.18310546875,-0.06103515625,0.9624317148350474,-0.0087893307290871,0.2507400738547929,-32.3125,0.75,-38.1875
158.5,0.1220703125,-0.06103515625,-0.06103515625,0.9624317148350474,-0.010376293221839,0.2515945921201208,-33.0625,0.0,-40.25
159.0,0.1220703125,0.0,-0.06103515625,0.9649952696310312,-0.0112308114871669,0.2537919248023926,-33.4375,1.125,-38.625
159.5,0.0,0.06103515625,-0.18310546875,0.9635303811761834,-0.0091555528427991,0.2511062959685049,-33.4375,-0.75,-37.375
160.0,0.244140625,0.0,-0.1220703125,0.9625537888729514,-0.0093997009186071,0.249885555589465,-31.3125,0.0,-37.375
160.5,0.1220703125,0.06103515625,0.0,0.9630420850245676,-0.0085451826532792,0.2529374065370647,-31.3125,0.375,-38.625
161.0,0.0,0.0,-0.18310546875,0.9616992706076236,-0.0084231086153752,0.2512283700064089,-33.0625,0.75,-40.25
161.5,-0.06103515625,0.18310546875,-0.18310546875,0.9631641590624714,-0.0125736259041108,0.249641407513657,-31.9375,0.75,-37.375
162.0,0.1220703125,0.06103515625,-0.06103515625,0.9642628254036072,-0.0087893307290871,0.2533036286507767,-32.3125,-1.875,-41.375
162.5,0.18310546875,-0.1220703125,-0.1220703125,0.9636524552140874,-0.0120853297524948,0.2511062959685049,-32.6875,1.125,-40.25
163.0,0.1220703125,0.0,-0.06103515625,0.9613330484939115,-0.0089114047669911,0.2517166661580248,-30.9375,1.125,-39.8125
163.5,0.18310546875,0.0,-0.06103515625,0.9630420850245676,-0.0109866634113589,0.2509842219306009,-30.9375,1.125,-36.9375
164.0,-0.06103515625,0.06103515625,-0.1220703125,0.9647511215552232,-0.010010071108127,0.2514725180822169,-34.5,-0.75,-37.8125
164.5,0.06103515625,0.18310546875,0.0,0.9627979369487594,-0.010010071108127,0.2535477767265847,-32.6875,-1.0625,-35.75
165.0,0.0,0.244140625,-0.1220703125,0.9623096407971434,-0.010498367259743,0.2517166661580248,-34.125,0.375,-36.9375
165.5,3.96728515625,-0.9765625,-1.15966796875,0.9648731955931272,-0.02172917874691,0.2651448103274636,-33.4375,-1.0625,-39.0
166.0,-3.11279296875,4.94384765625,-0.9765625,0.9588915677358316,-0.0068361461226233,0.2338938566240425,-31.6875,2.3125,-39.0
166.5,0.91552734375,-1.0986328125,-0.9765625,0.9543748283333842,-0.0269783623767815,0.2708822901089511,-32.3125,-1.0625,-39.4375
167.0,1.52587890625,-1.3427734375,0.3662109375,0.9615771965697196,-0.0151371807000946,0.238654744102298,-31.6875,-0.75,-36.5
167.5,-0.48828125,0.9765625,1.03759765625,0.9646290475173191,-0.0162358470412305,0.2354808191167943,-33.0625,-0.375,-37.375
168.0,0.42724609375,-0.06103515625,-0.3662109375,0.9658497878963592,-0.0147709585863826,0.2541581469161046,-32.3125,-0.375,-36.9375
168.5,-2.01416015625,1.3427734375,0.0,0.9626758629108554,-0.0205084383678701,0.2651448103274636,-32.6875,1.125,-39.0
169.0,-1.89208984375,2.197265625,-0.8544921875,0.9615771965697196,-0.0197759941404461,0.2297433393353068,-33.4375,-0.375,-38.1875
169.5,-0.42724609375,1.15966796875,-0.244140625,0.9630420850245676,-0.0172124393444624,0.2567217017120883,-34.125,-1.0625,-39.0
170.0,-0.1220703125,0.244140625,0.0,0.9625537888729514,-0.0173345133823664,0.2594073305459761,-33.0625,2.3125,-32.875
170.5,-0.1220703125,0.06103515625,0.0,0.9629200109866634,-0.0168462172307504,0.2620929593798639,-32.3125,1.5,-36.9375
171.0,0.48828125,-0.1220703125,0.1220703125,0.9604785302285836,-0.0137943662831507,0.2489089632862331,-31.3125,-0.375,-40.625
171.5,2.62451171875,-3.5400390625,-1.3427734375,0.9627979369487594,0.0070802941984313,0.2343821527756584,-33.0625,-1.0625,-39.4375
172.0,-0.91552734375,0.3662109375,-0.30517578125,0.9649952696310312,-0.0026856288338877,0.2415845210119937,-32.3125,-0.375,-34.125
172.5,0.06103515625,0.06103515625,-0.06103515625,0.9662160100100712,-0.0034180730613116,0.2424390392773217,-33.4375,1.125,-41.0
173.0,0.0,0.0,-0.1220703125,0.967314676351207,-0.0034180730613116,0.2442701498458815,-31.9375,1.5,-37.75
173.5,0.18310546875,0.0,-0.1220703125,0.9627979369487594,-0.0064699240089114,0.2437818536942655,-33.8125,1.125,-37.75
174.0,-0.06103515625,0.06103515625,-0.06103515625,0.9656056398205513,-0.0056154057435834,0.2457350383007294,-32.3125,0.0,-37.8125
174.5,0.3662109375,0.06103515625,-0.06103515625,0.9647511215552232,-0.0020752586443678,0.2435377056184575,-32.3125,0.75,-38.625
175.0,0.0,0.18310546875,-0.06103515625,0.9645069734794152,-0.0070802941984313,0.2458571123386334,-31.6875,1.125,-39.0
175.5,0.0,0.06103515625,0.06103515625,0.9670705282753992,-0.0035401470992156,0.2453688161870174,-33.0625,-1.0625,-37.375
176.0,0.3662109375,-0.30517578125,-0.1220703125,0.9656056398205513,-0.0064699240089114,0.2417065950498977,-33.4375,-0.75,-37.375
176.5,0.18310546875,-0.06103515625,0.0,0.9642628254036072,-0.0056154057435834,0.2415845210119937,-32.3125,-0.375,-36.9375
177.0,0.06103515625,-0.06103515625,-0.1220703125,0.9632862331003754,-0.0050050355540635,0.239265114291818,-32.6875,1.5,-38.5625
177.5,0.0,0.18310546875,-0.1220703125,0.9654835657826472,-0.0057374797814874,0.2429273354289376,-32.3125,-2.25,-38.1875
178.0,0.30517578125,0.06103515625,-0.06103515625,0.9646290475173191,-0.0065919980468153,0.2443922238837855,-32.3125,1.125,-38.625
178.5,-0.30517578125,0.30517578125,-0.06103515625,0.9653614917447432,-0.0036622211371196,0.2429273354289376,-33.4375,0.75,-37.8125
179.0,0.1220703125,0.1220703125,0.0,0.9648731955931272,-0.0014648884548478,0.2418286690878017,-33.0625,0.375,-37.375
179.5,0.06103515625,0.1220703125,-0.18310546875,0.9652394177068392,-0.0062257759331034,0.238654744102298,-32.3125,-0.75,-38.625
180.0,-0.30517578125,0.244140625,-0.1220703125,0.9654835657826472,-0.0048829615161595,0.2430494094668416,-33.4375,-2.625,-37.375
180.5,0.06103515625,0.06103515625,0.1220703125,0.9643848994415112,-0.0040284432508316,0.2446363719595934,-33.0625,-1.875,-39.0
181.0,0.0,0.30517578125,-0.1220703125,0.9632862331003754,-0.0052491836298715,0.2414624469740897,-34.875,0.375,-39.0
181.5,0.0,0.1220703125,-0.06103515625,0.9643848994415112,-0.0050050355540635,0.2412182988982818,-32.3125,0.0,-36.5625
182.0,0.0,0.1220703125,-0.1220703125,0.9641407513657032,-0.0057374797814874,0.2415845210119937,-33.8125,0.375,-39.4375
182.5,0.244140625,0.0,-0.1220703125,0.9631641590624714,-0.0057374797814874,0.2425611133152256,-33.4375,-0.75,-38.625
183.0,0.3662109375,-0.06103515625,-0.1220703125,0.9640186773277992,-0.0058595538193914,0.2395092623676259,-33.0625,-1.4375,-38.1875
183.5,0.244140625,0.0,-0.18310546875,0.9640186773277992,-0.0072023682363353,0.2412182988982818,-32.3125,-0.375,-36.9375
184.0,0.0,0.06103515625,0.0,0.9660939359721672,-0.0057374797814874,0.2408520767845698,-31.9375,1.125,-35.3125
184.5,0.06103515625,0.1220703125,0.06103515625,0.9657277138584552,-0.0056154057435834,0.2442701498458815,-33.8125,-0.75,-39.8125
185.0,-0.18310546875,0.1220703125,-0.1220703125,0.9660939359721672,-0.0045167394024475,0.2407300027466658,-33.8125,0.0,-37.0
185.5,0.54931640625,-0.06103515625,-0.18310546875,0.9642628254036072,-0.010620441297647,0.2426831873531296,-34.875,0.75,-35.75
186.0,-1.0986328125,1.3427734375,0.6103515625,0.9652394177068392,-0.0058595538193914,0.2420728171636097,-32.3125,-0.75,-34.875
186.5,0.0,-0.06103515625,-0.18310546875,0.9640186773277992,-0.010742515335551,0.238654744102298,-32.6875,-1.0625,-37.8125
187.0,-0.18310546875,0.0,-0.30517578125,0.967925046540727,-0.0114749595629749,0.2421948912015137,-32.6875,-1.4375,-38.1875
187.5,0.3662109375,0.1220703125,-0.18310546875,0.9654835657826472,-0.0090334788048951,0.2408520767845698,-33.0625,-0.375,-40.25
188.0,-0.30517578125,0.42724609375,-0.18310546875,0.9648731955931272,-0.010132145146031,0.2428052613910336,-33.0625,-0.375,-34.875
188.5,0.0,0.0,-0.18310546875,0.9642628254036072,-0.0112308114871669,0.2445142979216895,-33.0625,-0.375,-39.4375
189.0,0.1220703125,0.1220703125,-0.1220703125,0.9653614917447432,-0.0092776268807031,0.2453688161870174,-34.5,0.75,-39.4375
189.5,0.1220703125,-0.06103515625,-0.06103515625,0.9637745292519914,-0.010010071108127,0.2445142979216895,-31.3125,-0.375,-40.625
190.0,0.0,0.18310546875,-0.1220703125,0.9652394177068392,-0.0089114047669911,0.2419507431257057,-34.125,0.0,-33.6875
190.5,0.54931640625,-0.244140625,-0.06103515625,0.9651173436689352,-0.0122074037903988,0.2452467421491134,-32.6875,0.0,-36.125
191.0,4.2724609375,-2.62451171875,0.1220703125,0.9614551225318156,-0.0008545182653279,0.2447584459974975,-30.9375,-0.75,-40.625
191.5,-1.46484375,0.06103515625,-0.54931640625,0.9581591235084078,-0.0444349497970519,0.2237617114780114,-32.3125,0.0,-37.8125
192.0,-1.52587890625,0.06103515625,0.8544921875,0.956572161015656,-0.0144047364726706,0.2041077913754692,-33.4375,1.5,-36.9375
192.5,0.18310546875,-0.9765625,-0.67138671875,0.957182531205176,-0.0231940672017578,0.2403637806329538,-33.0625,-0.375,-41.4375
193.0,1.64794921875,-2.99072265625,0.3662109375,0.9621875667592394,-0.0124515518662068,0.2535477767265847,-33.8125,0.375,-37.75
193.5,2.38037109375,-2.25830078125,-0.48828125,0.9625537888729514,-0.0045167394024475,0.23902096621601,-33.8125,0.0,-37.375
194.0,-1.708984375,1.52587890625,0.48828125,0.9606006042664876,-0.0128177739799188,0.23902096621601,-33.8125,0.0,-35.75
194.5,-0.732421875,0.79345703125,-0.42724609375,0.9609668263801996,-0.0187994018372142,0.271248512222663,-32.3125,1.5,-38.625
195.0,0.30517578125,0.3662109375,0.42724609375,0.9604785302285836,-0.0196539201025421,0.2579424420911282,-33.0625,0.0,-35.3125
195.5,0.244140625,-1.64794921875,0.06103515625,0.9627979369487594,-0.0163579210791344,0.2402417065950499,-31.6875,0.375,-38.1875
196.0,0.48828125,-0.3662109375,-0.6103515625,0.9658497878963592,-0.0273445844904934,0.2371898556474501,-32.3125,-1.4375,-36.9375
196.5,-1.3427734375,1.40380859375,1.15966796875,0.9615771965697196,-0.0235602893154698,0.2536698507644886,-33.4375,1.5,-36.9375
197.0,0.0,0.18310546875,0.06103515625,0.9610889004181036,-0.0234382152775658,0.250129703665273,-33.8125,-0.75,-36.5625
197.5,0.48828125,0.18310546875,-0.91552734375,0.9590136417737358,-0.02111880855739,0.2360911893063143,-32.3125,2.6875,-39.4375
198.0,-0.06103515625,0.0,-0.06103515625,0.9620654927213356,-0.0258796960356456,0.2551347392193365,-33.0625,0.0,-38.625
198.5,0.30517578125,-0.30517578125,0.06103515625,0.9614551225318156,-0.0202642902920621,0.261238441114536,-34.125,-0.75,-38.1875
199.0,0.1220703125,-1.46484375,-0.18310546875,0.9659718619342632,0.0048829615161595,0.2191228980376598,-31.3125,-1.0625,-39.0
199.5,0.42724609375,0.8544921875,0.8544921875,0.967680898464919,-0.0163579210791344,0.2663655507065035,-31.3125,-0.375,-32.4375
200.0,-0.42724609375,-0.3662109375,-0.18310546875,0.9614551225318156,-0.0310068056276131,0.2343821527756584,-33.4375,-0.75,-37.375
200.5,0.18310546875,-1.77001953125,-1.15966796875,0.9645069734794152,-0.0068361461226233,0.228034302804651,-33.0625,-0.75,-38.1875
201.0,-2.3193359375,4.150390625,-1.64794921875,0.9643848994415112,-0.0228278450880459,0.2617267372661519,-32.6875,0.0,-36.125
201.5,0.3662109375,0.42724609375,-0.79345703125,0.9632862331003754,-0.0290536210211493,0.2586748863185522,-31.9375,0.0,-39.0625
202.0,1.0986328125,-1.0986328125,-0.48828125,0.9635303811761834,-0.0246589556566057,0.2533036286507767,-34.125,1.5,-37.75
202.5,-0.3662109375,-0.244140625,-2.25830078125,0.954985198522904,0.0010986663411358,0.2367015594958342,-33.8125,1.9375,-38.1875
203.0,2.50244140625,-3.90625,0.91552734375,0.9613330484939115,-0.0314951017792291,0.2453688161870174,-34.125,-1.0625,-36.5625
203.5,-3.41796875,6.4697265625,0.67138671875,0.9619434186834316,-0.021240882595294,0.2235175634022034,-34.125,0.0,-36.5625
204.0,-0.48828125,0.0,-0.18310546875,0.9616992706076236,-0.0166020691549424,0.2476882229071932,-34.125,0.0,-38.1875
204.5,0.06103515625,0.6103515625,-0.06103515625,0.9662160100100712,-0.0239265114291818,0.2448805200354014,-33.8125,0.0,-37.8125
205.0,2.0751953125,0.06103515625,-0.67138671875,0.9638966032898952,-0.0205084383678701,0.2443922238837855,-31.9375,0.0,-34.875
205.5,1.5869140625,-3.0517578125,-1.708984375,0.9690237128818628,0.0045167394024475,0.2286446729941709,-32.6875,-0.75,-36.9375
206.0,-0.48828125,-0.1220703125,0.06103515625,0.9656056398205513,0.0117191076387829,0.2229071932126834,-32.3125,1.5,-38.1875
206.5,-4.39453125,-1.52587890625,2.62451171875,0.9638966032898952,-0.0179448835718863,0.2534257026886807,-33.8125,-0.375,-36.5625
207.0,10.25390625,1.89208984375,0.3662109375,0.9706106753746148,-0.0351573229163487,0.2199774163029877,-32.6875,-0.75,-35.75
207.5,6.591796875,-0.3662109375,0.9765625,0.968169194616535,-0.0448011719107638,0.2216864528336436,-34.5,-1.875,-36.5625
208.0,-0.244140625,-0.42724609375,0.1220703125,0.9690237128818628,-0.0373546555986205,0.2215643787957396,-34.125,-1.0625,-37.8125
208.5,-0.79345703125,0.91552734375,-0.732421875,0.967436750389111,-0.04345835749382,0.2326731162450026,-34.125,-0.75,-33.25
209.0,0.3662109375,-0.1220703125,0.42724609375,0.9687795648060548,-0.0421155430768761,0.2356028931546983,-34.875,-1.875,-39.0625
209.5,-3.23486328125,-0.06103515625,-0.18310546875,0.9710989715262308,-0.0515152439954832,0.2365794854579302,-34.125,1.125,-36.125
210.0,0.0,-0.1220703125,0.6103515625,0.9686574907681508,-0.0296639912106692,0.2329172643208105,-32.6875,-0.75,-37.8125
210.5,4.0283203125,-0.06103515625,0.91552734375,0.9709768974883268,-0.0505386516922513,0.2294991912594988,-33.8125,-1.875,-34.9375
211.0,-0.9765625,0.06103515625,-0.30517578125,0.9704886013367108,-0.0513931699575792,0.227790154728843,-34.5,0.375,-32.875
211.5,-0.06103515625,-0.30517578125,0.0,0.967925046540727,-0.0484633930478835,0.2290108951078829,-35.25,-0.75,-35.3125
212.0,0.1220703125,-0.48828125,0.30517578125,0.9690237128818628,-0.0471205786309396,0.2325510422070986,-33.8125,0.375,-35.75
212.5,-0.6103515625,-0.3662109375,-0.3662109375,0.967802972502823,-0.0516373180333872,0.2268135624256111,-34.125,1.5,-36.9375
213.0,-0.30517578125,1.03759765625,-0.3662109375,0.967925046540727,-0.0549333170567949,0.2222968230231635,-31.9375,-0.375,-39.8125
213.5,1.0986328125,0.6103515625,-0.79345703125,0.967802972502823,-0.0554216132084109,0.2294991912594988,-33.8125,0.375,-36.5625
214.0,0.0,-0.06103515625,-0.06103515625,0.9700003051850948,-0.0551774651326029,0.2291329691457869,-32.3125,0.375,-36.9375
214.5,0.244140625,-0.30517578125,-0.54931640625,0.968169194616535,-0.053712576677755,0.2292550431836909,-33.8125,-1.0625,-39.0
215.0,0.8544921875,-0.30517578125,0.18310546875,0.9718314157536546,-0.0574968718527787,0.2305978576006347,-34.125,2.3125,-37.375
215.5,0.1220703125,-0.30517578125,-0.30517578125,0.968169194616535,-0.0551774651326029,0.2291329691457869,-34.125,0.0,-35.75
216.0,-0.244140625,0.06103515625,0.6103515625,0.9692678609576708,-0.0512710959196752,0.2243720816675313,-33.8125,1.125,-37.75
216.5,0.6103515625,0.6103515625,-0.732421875,0.9710989715262308,-0.053468428601947,0.2367015594958342,-34.875,-0.75,-36.125
217.0,0.1220703125,-0.3662109375,-0.1220703125,0.966460158085879,-0.0502945036164433,0.2233954893642994,-33.8125,-0.375,-37.375
217.5,0.3662109375,-0.244140625,-0.06103515625,0.9691457869197668,-0.0502945036164433,0.2326731162450026,-32.6875,0.0,-39.0
218.0,0.1220703125,-0.30517578125,0.06103515625,0.9696340830713828,-0.0568865016632587,0.2268135624256111,-33.8125,-1.0625,-39.0625
218.5,-0.06103515625,-0.42724609375,-0.30517578125,0.967925046540727,-0.0500503555406353,0.2307199316385387,-35.25,0.0,-33.6875
219.0,0.42724609375,0.06103515625,0.0,0.9731742301705985,-0.053712576677755,0.2297433393353068,-35.25,-1.0625,-37.0
219.5,0.42724609375,-0.79345703125,0.30517578125,0.9686574907681508,-0.0490737632374034,0.2241279335917234,-33.4375,-1.4375,-38.1875
220.0,-0.30517578125,0.48828125,-0.18310546875,0.9682912686544388,-0.0523697622608111,0.2258369701223792,-34.125,0.0,-35.75
220.5,1.220703125,0.0,0.3662109375,0.966582232123783,-0.0555436872463148,0.2271797845393231,-31.9375,0.375,-36.5625
221.0,0.67138671875,-1.3427734375,-1.03759765625,0.9686574907681508,-0.0576189458906827,0.2270577105014191,-33.0625,-2.25,-38.625
221.5,-0.1220703125,2.685546875,-0.42724609375,0.967314676351207,-0.0402844325083162,0.2109439374980926,-32.6875,-0.375,-36.125
222.0,0.8544921875,-1.708984375,-1.46484375,0.955595568712424,-0.0560319833979308,0.2485427411725211,-33.0625,-1.0625,-33.25
222.5,1.89208984375,-4.5166015625,1.0986328125,0.9701223792229988,-0.0358897671437727,0.2650227362895596,-34.5,-1.0625,-34.9375
223.0,-1.03759765625,0.67138671875,0.67138671875,0.9830622272408216,-0.0560319833979308,0.2122867519150364,-34.5,-0.375,-36.9375
223.5,-0.1220703125,0.1220703125,-0.06103515625,0.9739066743980224,-0.0549333170567949,0.2159489730521561,-34.875,-1.875,-35.3125
224.0,0.18310546875,1.3427734375,-0.48828125,0.9698782311471909,-0.053590502639851,0.2075258644367809,-34.5,-0.75,-36.9375
224.5,-1.52587890625,1.15966796875,0.6103515625,0.9729300820947904,-0.0527359843745231,0.2154606769005402,-34.125,-0.375,-37.375
225.0,1.220703125,0.732421875,-0.9765625,0.9690237128818628,-0.0587176122318185,0.2188787499618518,-35.25,0.375,-37.0
225.5,-0.30517578125,-0.30517578125,0.48828125,0.9693899349955748,-0.0571306497390667,0.2181463057344279,-34.5,-1.875,-34.9375
226.0,0.54931640625,-0.67138671875,0.06103515625,0.9686574907681508,-0.0625019074068422,0.2047181615649891,-33.8125,-1.4375,-33.6875
226.5,-1.03759765625,-0.06103515625,-0.18310546875,0.9701223792229988,-0.054200872829371,0.2160710470900601,-34.875,0.0,-34.5
227.0,0.48828125,-0.48828125,0.42724609375,0.9732963042085024,-0.0578630939664906,0.2190008239997558,-34.5,-1.0625,-38.625
227.5,0.0,0.9765625,0.1220703125,0.9712210455641348,-0.0495620593890194,0.2032532731101413,-35.25,-1.4375,-37.375
228.0,-0.48828125,0.42724609375,-0.06103515625,0.9695120090334788,-0.0590838343455305,0.2150944547868282,-34.875,0.0,-36.9375
228.5,0.244140625,0.91552734375,-0.91552734375,0.9671926023133032,-0.0362559892574846,0.2225409710989715,-33.0625,-1.4375,-35.3125
229.0,-1.5869140625,-1.03759765625,-0.48828125,0.9659718619342632,-0.0440687276833399,0.2330393383587145,-33.8125,0.0,-35.75
229.5,0.91552734375,-0.732421875,0.0,0.9641407513657032,-0.0506607257301553,0.2439039277321695,-33.8125,0.75,-36.9375
230.0,-1.708984375,1.15966796875,0.42724609375,0.9671926023133032,-0.053834650715659,0.2507400738547929,-33.4375,0.75,-36.9375
230.5,0.30517578125,-0.1220703125,-0.3662109375,0.9629200109866634,-0.0524918362987151,0.2395092623676259,-31.3125,0.0,-38.625
231.0,0.06103515625,0.0,-0.1220703125,0.966460158085879,-0.0524918362987151,0.239143040253914,-33.8125,0.0,-36.5625
231.5,0.06103515625,0.244140625,-0.18310546875,0.9654835657826472,-0.0546891689809869,0.2410962248603778,-34.5,0.0,-42.25
232.0,0.18310546875,0.244140625,-0.06103515625,0.9658497878963592,-0.0511490218817713,0.2413403729361858,-34.125,-0.75,-35.3125
232.5,0.0,0.06103515625,-0.244140625,0.9649952696310312,-0.0528580584124271,0.238288521988586,-33.4375,-1.0625,-37.8125
233.0,0.244140625,-0.1220703125,-0.18310546875,0.9649952696310312,-0.0523697622608111,0.238532670064394,-31.9375,0.0,-37.375
233.5,0.1220703125,0.0,-0.06103515625,0.967802972502823,-0.0500503555406353,0.2417065950498977,-34.5,-1.4375,-34.5
234.0,0.18310546875,-0.06103515625,0.0,0.9643848994415112,-0.053834650715659,0.2407300027466658,-33.0625,-0.75,-33.6875
234.5,0.1220703125,0.06103515625,-0.1220703125,0.967925046540727,-0.0485854670857875,0.2404858546708578,-35.25,-0.75,-37.0
235.0,6.4697265625,-2.685546875,0.3662109375,0.9630420850245676,-0.0340586565752128,0.227912228766747,-33.0625,-1.875,-38.625
235.5,1.89208984375,0.0,0.54931640625,0.9704886013367108,-0.0478530228583636,0.2450025940733054,-33.0625,-1.0625,-38.625
236.0,0.1220703125,-0.18310546875,0.30517578125,0.9691457869197668,-0.0556657612842188,0.2705160679952391,-34.5,-1.4375,-40.25
236.5,-3.84521484375,2.86865234375,0.42724609375,0.9620654927213356,-0.0571306497390667,0.2199774163029877,-33.8125,-2.25,-36.5625
237.0,0.67138671875,-1.40380859375,0.732421875,0.9612109744560076,-0.0415051728873561,0.238898892178106,-34.875,-1.0625,-34.9375
237.5,-1.953125,2.3193359375,-0.1220703125,0.968169194616535,-0.0631122775963621,0.2570879238258003,-33.0625,0.0,-40.6875
238.0,0.67138671875,-2.44140625,-0.54931640625,0.9496139408551286,-0.0415051728873561,0.2262031922360912,-32.6875,-1.4375,-36.125
238.5,-0.8544921875,0.732421875,-0.732421875,0.9603564561906796,-0.0478530228583636,0.26075014496292,-34.125,-1.0625,-38.1875
239.0,1.0986328125,-1.40380859375,-0.30517578125,0.9626758629108554,-0.0410168767357402,0.2102114932706686,-33.4375,-1.0625,-38.625
239.5,0.244140625,-3.11279296875,-0.54931640625,0.9598681600390636,-0.032105471968749,0.2258369701223792,-33.4375,-0.375,-36.5625
240.0,-3.23486328125,7.6904296875,-0.48828125,0.9606006042664876,-0.0524918362987151,0.2465895565660573,-33.0625,0.0,-37.0
240.5,4.7607421875,-7.01904296875,-0.91552734375,0.9686574907681508,-0.0515152439954832,0.2769859920041505,-34.125,0.0,-33.6875
241.0,3.72314453125,-2.197265625,0.1220703125,0.9713431196020388,-0.0234382152775658,0.1993469038972136,-34.875,-1.875,-38.625
241.5,3.41796875,2.685546875,-2.38037109375,0.9728080080568864,-0.0218512527848139,0.2037415692617572,-34.125,-2.25,-35.75
242.0,-2.01416015625,2.13623046875,0.06103515625,0.9752494888149664,-0.0440687276833399,0.2359691152684103,-32.6875,-1.4375,-35.3125
242.5,2.13623046875,-2.86865234375,-0.91552734375,0.9741508224738304,-0.0081789605395672,0.2083803827021088,-35.9375,-1.875,-33.25
243.0,-1.89208984375,2.44140625,1.0986328125,0.97720267342143,-0.0358897671437727,0.2006897183141575,-35.25,-2.25,-39.0
243.5,0.06103515625,0.1220703125,-0.3662109375,0.9741508224738304,-0.0339365825373088,0.2153386028626361,-35.5625,1.125,-36.5625
244.0,-0.06103515625,0.42724609375,-0.06103515625,0.9720755638294626,-0.0296639912106692,0.2093569750053407,-33.0625,-3.0,-33.6875
244.5,0.0,0.48828125,-0.1220703125,0.9748832667012544,-0.0330820642719809,0.2142399365215002,-34.5,-0.75,-38.1875
245.0,-0.30517578125,0.48828125,-0.06103515625,0.9700003051850948,-0.0328379161961729,0.2138737144077883,-33.4375,-1.0625,-38.1875
245.5,0.06103515625,0.06103515625,-0.06103515625,0.9713431196020388,-0.0328379161961729,0.2126529740287484,-34.125,-1.875,-34.9375
246.0,0.1220703125,0.0,-0.18310546875,0.9715872676778466,-0.0313730277413251,0.2136295663319803,-34.875,-1.4375,-32.875
246.5,0.0,0.0,-0.1220703125,0.9719534897915586,-0.0301522873622852,0.2094790490432447,-34.5,-1.875,-36.5625
247.0,0.06103515625,0.18310546875,0.0,0.9717093417157506,-0.0284432508316293,0.2096011230811487,-34.875,-1.4375,-33.6875
247.5,-0.06103515625,0.1220703125,-0.1220703125,0.9724417859431744,-0.031861323892941,0.206671346171453,-34.875,-3.375,-37.375
248.0,0.06103515625,0.1220703125,-0.06103515625,0.9717093417157506,-0.0303964354380932,0.2104556413464766,-34.875,-1.875,-35.3125
248.5,0.1220703125,0.244140625,0.06103515625,0.9698782311471909,-0.031861323892941,0.2114322336497085,-35.5625,-1.4375,-37.375
249.0,-0.06103515625,0.18310546875,0.0,0.9707327494125186,-0.0301522873622852,0.2089907528916287,-33.4375,-1.4375,-37.375
249.5,-0.48828125,0.48828125,0.48828125,0.9708548234504228,-0.031739249855037,0.2082583086642048,-34.875,-0.75,-36.5625
250.0,-0.42724609375,0.244140625,-0.42724609375,0.9739066743980224,-0.0262459181493575,0.205572679830317,-35.25,-0.75,-34.9375
250.5,0.42724609375,0.0,-0.18310546875,0.9730521561326944,-0.0251472518082216,0.2089907528916287,-34.5,-1.4375,-35.3125
251.0,-0.1220703125,0.244140625,-0.06103515625,0.9731742301705985,-0.0290536210211493,0.2136295663319803,-34.5,-0.75,-37.375
251.5,-0.54931640625,0.06103515625,-0.42724609375,0.9723197119052706,-0.0283211767937253,0.2088686788537248,-35.9375,-1.875,-39.4375
252.0,0.1220703125,-0.06103515625,-0.06103515625,0.9724417859431744,-0.0294198431348612,0.2099673451948606,-35.9375,-3.0,-36.125
252.5,0.30517578125,0.06103515625,-0.06103515625,0.9732963042085024,-0.0285653248695333,0.2111880855739005,-34.125,-0.75,-33.25
253.0,-0.3662109375,0.1220703125,0.06103515625,0.9714651936399428,-0.0302743614001892,0.2142399365215002,-34.875,-1.875,-35.75
253.5,0.06103515625,0.244140625,0.0,0.9739066743980224,-0.0290536210211493,0.2093569750053407,-34.875,-0.75,-36.1875
254.0,0.06103515625,0.1220703125,-0.06103515625,0.9725638599810784,-0.031739249855037,0.2097231971190527,-34.125,-1.875,-33.6875
254.5,0.244140625,-0.18310546875,-0.1220703125,0.9726859340189824,-0.0306405835139011,0.2104556413464766,-35.25,-3.375,-38.1875
255.0,-0.06103515625,0.06103515625,-0.1220703125,0.9729300820947904,-0.0307626575518051,0.206060975981933,-34.875,-1.875,-37.375
255.5,-0.06103515625,0.06103515625,-0.1220703125,0.9724417859431744,-0.0308847315897091,0.2083803827021088,-33.8125,-1.4375,-37.8125
256.0,0.18310546875,0.06103515625,0.0,0.9729300820947904,-0.0261238441114535,0.2120426038392285,-34.125,-3.0,-35.3125
256.5,0.91552734375,-0.54931640625,-0.06103515625,0.9707327494125186,-0.0312509537034211,0.2092349009674367,-35.9375,-1.0625,-37.8125
257.0,-0.06103515625,0.18310546875,-0.79345703125,0.9746391186254464,-0.0369884334849086,0.1992248298593096,-34.125,-3.0,-38.625
257.5,1.0986328125,0.54931640625,0.18310546875,0.9737846003601184,-0.0264900662251655,0.2152165288247322,-34.875,-2.625,-35.75
258.0,0.18310546875,-0.3662109375,-0.8544921875,0.9743949705496384,-0.0299081392864772,0.2141178624835963,-34.5,-2.25,-34.9375
258.5,-0.54931640625,-0.06103515625,0.732421875,0.9724417859431744,-0.0347911008026367,0.2116763817255165,-34.875,-1.4375,-34.125
259.0,-0.54931640625,0.06103515625,-1.0986328125,0.9695120090334788,-0.0421155430768761,0.2017883846552934,-34.5,-2.25,-37.8125
259.5,1.8310546875,-0.9765625,-0.3662109375,0.967680898464919,-0.0404065065462202,0.2072817163609729,-35.5625,-1.4375,-34.9375
260.0,0.1220703125,0.48828125,-0.30517578125,0.9725638599810784,-0.0300302133243812,0.2006897183141575,-33.0625,-1.875,-35.3125
260.5,-0.1220703125,0.06103515625,0.0,0.9726859340189824,-0.0311288796655171,0.2117984557634205,-33.8125,-2.625,-36.5625
261.0,0.42724609375,0.0,-0.18310546875,0.9717093417157506,-0.0280770287179174,0.2105777153843806,-31.9375,-1.4375,-34.5
261.5,-0.18310546875,0.0,-0.1220703125,0.9713431196020388,-0.0295419171727652,0.2154606769005402,-33.8125,-2.625,-38.1875
262.0,0.0,0.0,0.06103515625,0.9708548234504228,-0.0328379161961729,0.2136295663319803,-33.8125,0.375,-37.8125
262.5,0.30517578125,0.1220703125,-0.18310546875,0.9730521561326944,-0.0291756950590533,0.2116763817255165,-34.125,-3.0,-37.0
263.0,0.1220703125,-0.30517578125,-0.06103515625,0.9728080080568864,-0.0307626575518051,0.2096011230811487,-34.125,-1.875,-32.4375
263.5,0.0,0.18310546875,-0.18310546875,0.9702444532609028,-0.0311288796655171,0.2076479384746849,-34.125,-2.625,-36.1875
264.0,0.0,0.0,-0.06103515625,0.9717093417157506,-0.0286873989074373,0.2054506057924131,-34.125,-1.4375,-31.625
264.5,0.244140625,0.1220703125,0.06103515625,0.9729300820947904,-0.0299081392864772,0.2092349009674367,-35.25,-1.4375,-34.5
265.0,0.67138671875,0.18310546875,-0.30517578125,0.9734183782464064,-0.0301522873622852,0.2110660115359965,-34.5,-2.25,-37.0
265.5,-0.42724609375,-0.54931640625,-0.3662109375,0.9731742301705985,-0.0281991027558214,0.2092349009674367,-33.0625,-3.0,-35.3125
266.0,0.6103515625,2.3193359375,0.54931640625,0.9691457869197668,-0.0371105075228125,0.227790154728843,-33.4375,-1.875,-39.0
266.5,-0.732421875,1.8310546875,0.30517578125,0.968169194616535,-0.0336924344615009,0.2447584459974975,-34.125,-2.25,-37.0
267.0,-3.60107421875,3.60107421875,0.732421875,0.9710989715262308,-0.0206305124057741,0.2431714835047456,-33.8125,-1.4375,-32.0625
267.5,-0.42724609375,0.3662109375,-0.1220703125,0.968169194616535,-0.0268562883388775,0.2430494094668416,-33.8125,-0.75,-33.6875
268.0,0.06103515625,0.244140625,-0.06103515625,0.9629200109866634,-0.0240485854670857,0.23902096621601,-34.125,-2.25,-39.4375
268.5,1.46484375,-1.46484375,0.91552734375,0.9607226783043916,-0.0288094729453413,0.249275185399945,-33.8125,-1.875,-39.4375
269.0,-0.8544921875,-0.42724609375,0.732421875,0.9659718619342632,-0.0507827997680593,0.2349925229651784,-32.6875,-1.875,-34.9375
269.5,-34.48486328125,4.57763671875,-6.7138671875,0.9592577898495438,-0.0628681295205542,0.2736899929807428,-32.6875,8.375,-37.375
270.0,-36.43798828125,-2.86865234375,-10.6201171875,0.9632862331003754,-0.0139164403210547,0.2747886593218787,-33.0625,13.0,-37.375
270.5,-2.38037109375,-0.67138671875,0.8544921875,0.968169194616535,-0.0040284432508316,0.261238441114536,-31.6875,12.1875,-37.375
271.0,24.59716796875,1.8310546875,6.65283203125,0.9623096407971434,-0.0136722922452467,0.2507400738547929,-33.0625,6.8125,-35.3125
271.5,10.55908203125,1.89208984375,3.41796875,0.956328012939848,-0.0917996765037995,0.28247932370983,-30.1875,8.0,-39.875
272.0,1.3427734375,-0.06103515625,-1.220703125,0.9535203100680564,-0.0686056093020416,0.2879726554155095,-30.9375,7.625,-36.1875
272.5,-4.57763671875,0.91552734375,-0.42724609375,0.9602343821527756,-0.032105471968749,0.2804040650654622,-31.3125,8.75,-36.1875
273.0,-3.173828125,2.5634765625,-0.48828125,0.9581591235084078,-0.0594500564592425,0.2658772545548875,-31.9375,8.375,-38.625
273.5,-2.86865234375,-1.28173828125,-0.3662109375,0.9714651936399428,-0.0428479873043,0.2525711844233527,-30.9375,9.5625,-34.5
274.0,-0.6103515625,-0.48828125,-0.3662109375,0.9579149754325998,-0.0599383526108584,0.2439039277321695,-31.9375,9.5625,-40.25
274.5,-0.6103515625,-2.25830078125,-0.30517578125,0.9580370494705038,-0.0633564256721701,0.2692953276161992,-29.8125,9.1875,-35.3125
275.0,0.3662109375,1.89208984375,-0.48828125,0.9635303811761834,-0.0572527237769707,0.2570879238258003,-32.6875,8.75,-38.625
275.5,1.220703125,2.99072265625,0.30517578125,0.9606006042664876,-0.0366222113711966,0.2658772545548875,-29.4375,9.9375,-38.625
276.0,-0.79345703125,-1.953125,-0.244140625,0.9610889004181036,-0.0402844325083162,0.2755211035493026,-33.0625,8.75,-36.125
276.5,3.173828125,0.06103515625,-0.244140625,0.9737846003601184,-0.0913113803521836,0.3081148716696676,-31.9375,8.0,-39.4375
277.0,0.9765625,1.03759765625,-0.9765625,0.9654835657826472,-0.0336924344615009,0.2636799218726157,-31.6875,7.25,-37.375
277.5,-0.91552734375,0.9765625,0.54931640625,0.9595019379253518,-0.0441908017212439,0.260017700735496,-30.1875,9.1875,-36.5625
278.0,0.42724609375,-1.5869140625,0.8544921875,0.9619434186834316,-0.0600604266487624,0.2653889584032716,-29.4375,8.375,-41.4375
278.5,1.953125,-3.35693359375,-1.953125,0.9542527542954802,-0.0636005737479781,0.2502517777031769,-30.9375,10.25,-35.3125
279.0,0.42724609375,-0.06103515625,0.244140625,0.9642628254036072,-0.0527359843745231,0.2541581469161046,-31.9375,8.375,-37.0
279.5,1.03759765625,-2.44140625,0.8544921875,0.9615771965697196,-0.064699240089114,0.2456129642628254,-31.6875,9.1875,-36.5625
280.0,8.1787109375,-0.54931640625,0.79345703125,0.9729300820947904,-0.0633564256721701,0.2669759208960234,-32.3125,10.25,-34.9375
280.5,3.5400390625,-2.5634765625,0.06103515625,0.9601123081148716,-0.075563829462569,0.2653889584032716,-31.9375,8.75,-38.1875
281.0,-1.15966796875,-0.732421875,-0.42724609375,0.9616992706076236,-0.0571306497390667,0.238532670064394,-31.6875,8.375,-38.1875
281.5,1.52587890625,0.6103515625,0.1220703125,0.9713431196020388,-0.0249031037324137,0.2531815546128727,-31.3125,9.5625,-37.375
282.0,10.07080078125,-2.197265625,2.25830078125,0.9627979369487594,-0.0448011719107638,0.2429273354289376,-33.0625,2.6875,-35.375
282.5,35.400390625,-6.28662109375,-2.62451171875,0.9739066743980224,-0.0465102084414197,0.2137516403698843,-33.8125,-3.8125,-36.5625
283.0,4.8828125,3.7841796875,1.220703125,0.9689016388439587,0.0257576219977416,0.2183904538102359,-34.875,-4.5625,-38.1875
283.5,2.25830078125,0.1220703125,-0.244140625,0.9684133426923428,0.0156254768517105,0.2331614123966185,-33.0625,-1.875,-37.375
284.0,-3.72314453125,-1.28173828125,0.30517578125,0.966704306161687,0.0084231086153752,0.282967619861446,-34.125,-1.0625,-39.4375
284.5,-4.21142578125,3.23486328125,1.64794921875,0.9704886013367108,-0.010010071108127,0.2299874874111148,-35.25,-1.4375,-37.375
285.0,-0.1220703125,0.06103515625,1.220703125,0.9653614917447432,-0.0056154057435834,0.227790154728843,-31.9375,-1.4375,-41.0
285.5,-1.28173828125,1.3427734375,1.03759765625,0.9646290475173191,-0.0273445844904934,0.249763481551561,-32.3125,0.75,-37.375
286.0,-3.23486328125,2.8076171875,0.244140625,0.957792901394696,-0.0444349497970519,0.2132633442182683,-33.4375,-0.75,-37.0
286.5,-0.48828125,0.91552734375,-0.732421875,0.9610889004181036,-0.0039063692129276,0.2343821527756584,-34.125,-0.75,-35.75
287.0,-1.46484375,-1.8310546875,-0.91552734375,0.9645069734794152,0.010376293221839,0.2155827509384441,-33.0625,1.5,-37.8125
287.5,-2.8076171875,2.01416015625,1.953125,0.9651173436689352,-0.0147709585863826,0.2415845210119937,-32.6875,-0.75,-34.9375
288.0,-0.30517578125,0.30517578125,0.30517578125,0.9649952696310312,-0.0233161412396618,0.2441480758079775,-33.0625,-1.4375,-38.1875
288.5,0.244140625,-0.1220703125,-0.244140625,0.9635303811761834,-0.0168462172307504,0.2373119296853541,-32.6875,-0.75,-38.625
289.0,0.244140625,0.0,-0.1220703125,0.9653614917447432,-0.0172124393444624,0.2439039277321695,-33.0625,-0.375,-40.25
289.5,-0.18310546875,0.18310546875,-0.06103515625,0.9636524552140874,-0.0223395489364299,0.2420728171636097,-32.6875,0.75,-38.625
290.0,0.0,0.06103515625,0.0,0.9636524552140874,-0.0156254768517105,0.2448805200354014,-34.125,-1.0625,-37.0
290.5,2.99072265625,-2.3193359375,-0.67138671875,0.9685354167302468,-0.0206305124057741,0.2478102969450972,-33.0625,-2.25,-37.0
291.0,-2.3193359375,4.57763671875,1.28173828125,0.9649952696310312,-0.0129398480178228,0.2359691152684103,-31.9375,-1.0625,-36.5625
291.5,0.42724609375,2.44140625,-0.8544921875,0.9587694936979276,-0.0115970336008789,0.2378002258369701,-32.6875,-1.0625,-37.8125
292.0,0.1220703125,1.0986328125,-0.30517578125,0.9702444532609028,-0.0051271095919675,0.2358470412305063,-33.4375,-1.4375,-36.1875
292.5,1.40380859375,-4.21142578125,0.8544921875,0.9613330484939115,-0.0091555528427991,0.2038636432996612,-32.3125,0.0,-35.75
293.0,-0.8544921875,1.46484375,-0.91552734375,0.966582232123783,0.0025635547959837,0.2489089632862331,-30.5625,-1.4375,-37.0
293.5,1.0986328125,-0.30517578125,-0.30517578125,0.9630420850245676,-0.0003662221137119,0.239143040253914,-33.8125,-1.4375,-35.75
294.0,1.3427734375,-2.25830078125,-1.0986328125,0.9625537888729514,-0.0048829615161595,0.2316965239417706,-33.4375,-0.75,-34.9375
294.5,-1.953125,1.52587890625,0.67138671875,0.9717093417157506,-0.0036622211371196,0.2441480758079775,-33.4375,-0.75,-37.375
295.0,-0.30517578125,0.244140625,0.06103515625,0.966582232123783,-0.0078127384258552,0.2323068941312906,-31.3125,-0.375,-36.1875
295.5,0.06103515625,0.1220703125,-0.54931640625,0.9656056398205513,-0.0084231086153752,0.2362132633442182,-34.125,-1.4375,-36.1875
296.0,0.06103515625,0.0,0.244140625,0.9669484542374952,-0.0167241431928464,0.2331614123966185,-33.8125,-0.75,-37.8125
296.5,-0.06103515625,0.42724609375,0.0,0.967925046540727,-0.0126956999420148,0.2330393383587145,-33.8125,-0.75,-42.25
297.0,0.18310546875,0.1220703125,0.0,0.9649952696310312,-0.0159916989654225,0.2319406720175786,-32.6875,-1.4375,-37.0
297.5,-0.42724609375,0.18310546875,0.0,0.966460158085879,-0.0157475508896145,0.2326731162450026,-34.5,0.375,-38.625
298.0,-0.79345703125,-0.06103515625,-0.18310546875,0.9647511215552232,-0.010010071108127,0.2349925229651784,-33.4375,0.375,-37.8125
298.5,0.79345703125,-0.244140625,-0.6103515625,0.9645069734794152,-0.0224616229743339,0.2316965239417706,-32.6875,-0.75,-35.3125
299.0,0.18310546875,0.06103515625,-0.06103515625,0.9684133426923428,-0.0173345133823664,0.2357249671926023,-35.9375,1.5,-32.0625
299.5,2.01416015625,-3.0517578125,4.8828125,0.9690237128818628,-0.0303964354380932,0.2192449720755638,-34.875,0.0,-35.75
300.0,1.40380859375,0.0,0.42724609375,0.9765923032319102,-0.0478530228583636,0.1971495712149418,-33.8125,0.375,-38.1875
300.5,-3.41796875,-0.42724609375,0.244140625,0.977568895535142,-0.0373546555986205,0.2191228980376598,-33.8125,-0.375,-36.1875
301.0,0.0,2.0751953125,-0.06103515625,0.977935117648854,-0.0352793969542527,0.2157048249763481,-32.6875,-0.75,-36.5625
301.5,0.06103515625,-0.6103515625,-0.244140625,0.9729300820947904,-0.0552995391705069,0.1942197943052461,-34.875,-0.375,-34.125
302.0,-1.3427734375,-0.732421875,0.6103515625,0.9756157109286784,-0.0454115421002838,0.2138737144077883,-35.25,1.5,-34.5
302.5,-1.5869140625,0.8544921875,-1.64794921875,0.9730521561326944,-0.0365001373332926,0.1856746116519669,-35.25,-0.375,-33.3125
303.0,2.685546875,-1.46484375,-0.3662109375,0.9725638599810784,-0.0598162785729545,0.1835993530075991,-34.5,0.0,-34.125
303.5,-0.1220703125,0.67138671875,0.732421875,0.9731742301705985,-0.0617694631794183,0.1958067567979979,-34.875,-0.75,-35.75
304.0,-1.77001953125,-0.1220703125,0.9765625,0.9735404522843104,-0.0656758323923459,0.1991027558214056,-34.5,1.125,-37.375
304.5,2.38037109375,0.732421875,-0.06103515625,0.979155858027894,-0.064699240089114,0.2010559404278695,-36.625,1.125,-38.25
305.0,0.06103515625,0.06103515625,-0.18310546875,0.9740287484359264,-0.0601825006866664,0.1911679433576464,-33.8125,-2.25,-36.5625
305.5,1.953125,0.67138671875,-1.89208984375,0.9762260811181982,-0.0579851680043946,0.1959288308359019,-35.25,0.0,-34.125
306.0,-1.15966796875,-0.3662109375,-0.1220703125,0.9703665272988068,-0.0692159794915616,0.1998352000488296,-35.5625,-1.0625,-34.9375
306.5,0.732421875,1.03759765625,-1.3427734375,0.9736625263222144,-0.0581072420422986,0.1826227607043672,-34.5,-0.75,-35.3125
307.0,-0.6103515625,1.03759765625,1.953125,0.9697561571092868,-0.0568865016632587,0.2128971221045564,-34.125,-1.4375,-38.1875
307.5,-1.0986328125,0.6103515625,0.1220703125,0.9734183782464064,-0.0493179113132114,0.2141178624835963,-35.5625,0.375,-36.1875
308.0,0.06103515625,0.06103515625,-0.06103515625,0.9707327494125186,-0.0495620593890194,0.2144840845973082,-36.25,-0.375,-34.9375
308.5,-1.0986328125,0.244140625,0.79345703125,0.9723197119052706,-0.053834650715659,0.2111880855739005,-35.25,1.125,-34.5625
309.0,2.44140625,-0.18310546875,-0.42724609375,0.9730521561326944,-0.0683614612262337,0.1971495712149418,-33.8125,0.0,-37.8125
309.5,-0.42724609375,0.6103515625,0.06103515625,0.9739066743980224,-0.0548112430188909,0.2067934202093569,-35.5625,-0.75,-37.0
310.0,-0.6103515625,0.6103515625,-0.30517578125,0.9732963042085024,-0.043092135380108,0.2034974211859492,-35.5625,-1.4375,-37.375
310.5,0.79345703125,-1.708984375,-0.67138671875,0.9714651936399428,-0.0494399853511154,0.1969054231391339,-34.5,-0.75,-36.1875
311.0,0.3662109375,-0.54931640625,0.06103515625,0.9741508224738304,-0.0582293160802026,0.2069154942472609,-33.8125,-0.75,-39.0625
311.5,-0.18310546875,0.48828125,0.48828125,0.9754936368907744,-0.0516373180333872,0.2081362346263008,-33.8125,0.0,-35.75
312.0,1.28173828125,0.30517578125,-1.3427734375,0.9689016388439587,-0.0528580584124271,0.195196386608478,-32.3125,-1.875,-37.8125
312.5,1.953125,0.79345703125,1.77001953125,0.957060457167272,-0.0383312479018524,0.2033753471480452,-32.3125,-0.375,-34.125
313.0,-0.9765625,-0.8544921875,0.18310546875,0.9708548234504228,-0.04345835749382,0.2741782891323587,-31.6875,0.375,-38.25
313.5,-1.220703125,0.48828125,-0.732421875,0.967436750389111,-0.06457716605121,0.3062837611011078,-32.6875,-1.4375,-41.4375
314.0,-1.46484375,4.638671875,0.42724609375,0.97720267342143,-0.0450453199865718,0.2628254036072878,-33.4375,-1.4375,-41.875
314.5,-8.30078125,7.75146484375,0.67138671875,0.9612109744560076,-0.0445570238349559,0.2138737144077883,-28.375,0.375,-40.6875
315.0,-0.79345703125,0.06103515625,-0.42724609375,0.9501022370067446,-0.0136722922452467,0.3560899685659352,-32.6875,1.9375,-40.6875
315.5,-0.67138671875,-0.1220703125,0.06103515625,0.9475386822107608,-0.0546891689809869,0.3101901303140355,-32.3125,2.3125,-38.625
316.0,2.9296875,-4.0283203125,0.732421875,0.9468062379833369,-0.0550553910946989,0.3175145725882748,-32.3125,-0.375,-38.1875
316.5,2.13623046875,-1.03759765625,0.6103515625,0.956572161015656,-0.0495620593890194,0.2970061342204046,-32.3125,-1.875,-39.0
317.0,0.91552734375,-1.28173828125,-0.79345703125,0.957792901394696,-0.0493179113132114,0.2535477767265847,-31.9375,-0.75,-36.5625
317.5,2.86865234375,-5.615234375,-0.8544921875,0.9623096407971434,-0.0365001373332926,0.2622150334177678,-33.0625,-1.0625,-37.8125
318.0,-0.79345703125,1.03759765625,-0.244140625,0.9613330484939115,-0.0417493209631641,0.2794274727622303,-32.3125,0.375,-37.8125
318.5,-0.3662109375,0.244140625,1.0986328125,0.9599902340769676,-0.0496841334269234,0.2585528122806482,-31.3125,-0.75,-37.375
319.0,-0.3662109375,-0.1220703125,-0.732421875,0.9638966032898952,-0.0545670949430829,0.2774742881557664,-33.4375,0.375,-40.25
319.5,-1.28173828125,2.38037109375,0.91552734375,0.9614551225318156,-0.0454115421002838,0.2561113315225684,-33.0625,0.75,-37.8125
320.0,-0.3662109375,0.06103515625,0.67138671875,0.9581591235084078,-0.0396740623187963,0.2442701498458815,-33.8125,-1.0625,-37.8125
320.5,0.67138671875,-5.9814453125,-1.5869140625,0.9636524552140874,-0.0566423535874507,0.2081362346263008,-33.8125,-1.875,-37.0
321.0,1.03759765625,-0.48828125,0.48828125,0.9586474196600238,-0.0361339152195806,0.1787163914914395,-33.4375,-0.75,-37.0
321.5,-1.28173828125,4.638671875,0.732421875,0.9612109744560076,-0.0443128757591479,0.2216864528336436,-34.875,-0.375,-38.25
322.0,-1.46484375,0.9765625,0.42724609375,0.9686574907681508,-0.0749534592730491,0.2561113315225684,-34.125,-0.75,-37.0
322.5,1.0986328125,-0.6103515625,-0.54931640625,0.9615771965697196,-0.054078798791467,0.2446363719595934,-32.6875,-2.25,-34.5
323.0,-1.15966796875,1.03759765625,-0.30517578125,0.9640186773277992,-0.0363780632953886,0.2396313364055299,-32.6875,0.0,-38.25
323.5,-0.1220703125,0.732421875,0.06103515625,0.9700003051850948,-0.0517593920712912,0.2620929593798639,-32.3125,-1.4375,-36.5625
324.0,-1.77001953125,-0.54931640625,-1.52587890625,0.9698782311471909,-0.0441908017212439,0.2546464430677205,-32.6875,-1.0625,-34.9375
324.5,0.48828125,-0.6103515625,0.6103515625,0.9634083071382794,-0.0589617603076265,0.2520828882717368,-31.9375,0.0,-37.0
325.0,2.25830078125,-1.953125,0.30517578125,0.9613330484939115,-0.04345835749382,0.2457350383007294,-33.0625,0.375,-37.0
325.5,0.06103515625,0.42724609375,-0.06103515625,0.9615771965697196,-0.0467543565172277,0.2342600787377544,-32.6875,0.375,-38.625
326.0,-0.9765625,1.64794921875,0.42724609375,0.9654835657826472,-0.0405285805841242,0.2440260017700735,-34.125,0.0,-35.75
326.5,-0.18310546875,0.18310546875,-0.244140625,0.9604785302285836,-0.0577410199285866,0.249275185399945,-32.3125,-0.375,-37.8125
327.0,1.77001953125,-0.48828125,-1.15966796875,0.9591357158116398,-0.0355235450300607,0.2414624469740897,-33.0625,-1.875,-37.0
327.5,0.3662109375,0.91552734375,-0.6103515625,0.9645069734794152,-0.0428479873043,0.2529374065370647,-33.8125,0.75,-36.1875
328.0,-0.06103515625,-0.48828125,0.6103515625,0.9669484542374952,-0.0594500564592425,0.2601397747734,-33.8125,0.0,-38.1875
328.5,0.0,-0.48828125,-0.67138671875,0.9636524552140874,-0.0476088747825556,0.2456129642628254,-32.3125,1.125,-37.8125
329.0,-0.244140625,-0.1220703125,0.0,0.9621875667592394,-0.0490737632374034,0.2529374065370647,-32.6875,0.75,-35.75
329.5,0.54931640625,-0.18310546875,-0.1220703125,0.9634083071382794,-0.0408948026978362,0.2486648152104251,-33.0625,-0.375,-38.1875
330.0,-0.244140625,0.54931640625,0.0,0.9640186773277992,-0.053468428601947,0.2471999267555772,-31.9375,0.75,-36.5625
330.5,0.244140625,-0.8544921875,-0.244140625,0.9608447523422956,-0.0468764305551316,0.2429273354289376,-33.0625,-0.75,-37.8125
331.0,0.54931640625,-0.06103515625,-0.48828125,0.9612109744560076,-0.0484633930478835,0.2471999267555772,-34.125,-1.875,-34.5
331.5,0.06103515625,-0.3662109375,0.06103515625,0.9599902340769676,-0.043092135380108,0.2337717825861384,-33.4375,-0.75,-36.1875
332.0,2.13623046875,0.06103515625,0.3662109375,0.9637745292519914,-0.031739249855037,0.2436597796563616,-33.0625,-1.4375,-38.625
332.5,0.06103515625,-0.1220703125,0.0,0.9638966032898952,-0.0557878353221228,0.2451246681112094,-32.6875,-1.0625,-35.75
333.0,0.18310546875,-0.1220703125,0.0,0.9616992706076236,-0.0463881344035157,0.2471999267555772,-32.3125,-0.375,-37.8125
333.5,0.42724609375,0.30517578125,0.244140625,0.9609668263801996,-0.043214209418012,0.249519333475753,-33.0625,-0.75,-36.5625
334.0,0.0,0.1220703125,0.244140625,0.9645069734794152,-0.0495620593890194,0.2486648152104251,-32.6875,-0.375,-36.1875
334.5,-0.18310546875,0.18310546875,-0.1220703125,0.9626758629108554,-0.0494399853511154,0.249519333475753,-33.0625,-1.0625,-36.5625
335.0,0.18310546875,0.06103515625,-0.30517578125,0.9634083071382794,-0.0423596911526841,0.2522049623096408,-31.3125,-1.0625,-38.1875
335.5,0.244140625,0.67138671875,0.30517578125,0.9602343821527756,-0.043092135380108,0.2473220007934812,-31.9375,0.0,-38.25
336.0,0.8544921875,-1.953125,0.3662109375,0.9648731955931272,-0.0642109439374981,0.2751548814355907,-33.8125,0.375,-39.875
336.5,-1.220703125,2.74658203125,0.06103515625,0.967925046540727,-0.0510269478438673,0.2315744499038667,-32.3125,-0.75,-37.0
337.0,1.77001953125,-3.5400390625,-0.18310546875,0.9685354167302468,-0.0588396862697225,0.2540360728782006,-34.125,-0.375,-35.75
337.5,-0.79345703125,1.46484375,-0.42724609375,0.9647511215552232,-0.0491958372753074,0.2547685171056245,-34.5,-0.75,-37.0
338.0,0.48828125,0.91552734375,-0.18310546875,0.9613330484939115,-0.0566423535874507,0.2534257026886807,-31.9375,-1.0625,-36.125
338.5,2.685546875,-0.9765625,0.06103515625,0.9593798638874478,-0.0368663594470046,0.2315744499038667,-31.6875,0.0,-37.8125
339.0,-0.1220703125,-0.8544921875,0.3662109375,0.9632862331003754,-0.0487075411236915,0.2541581469161046,-33.4375,0.375,-36.1875
339.5,0.06103515625,0.42724609375,-0.18310546875,0.9658497878963592,-0.0531022064882351,0.2574541459395123,-32.3125,-0.375,-37.8125
340.0,-0.3662109375,0.3662109375,-0.3662109375,0.9616992706076236,-0.0577410199285866,0.2557451094088565,-33.4375,0.75,-39.875
340.5,0.42724609375,0.1220703125,0.0,0.9627979369487594,-0.0518814661091952,0.250129703665273,-34.125,-1.0625,-40.6875
341.0,0.06103515625,-0.06103515625,-0.18310546875,0.9598681600390636,-0.0479750968962675,0.2475661488692892,-33.8125,-0.375,-35.75
341.5,0.3662109375,0.244140625,-0.06103515625,0.9612109744560076,-0.0489516891994994,0.2524491103854487,-33.4375,0.375,-38.625
342.0,-0.6103515625,0.67138671875,0.18310546875,0.9623096407971434,-0.0574968718527787,0.2528153324991607,-33.0625,-0.375,-35.3125
342.5,-0.06103515625,0.42724609375,-1.0986328125,0.9627979369487594,-0.0520035401470992,0.2430494094668416,-32.3125,-1.4375,-37.0
343.0,-0.244140625,-0.06103515625,-0.244140625,0.9658497878963592,-0.0455336161381878,0.249885555589465,-31.6875,-0.375,-37.4375
343.5,0.18310546875,-0.06103515625,-0.06103515625,0.9620654927213356,-0.0526139103366191,0.249275185399945,-33.0625,-0.75,-35.3125
344.0,0.18310546875,-0.06103515625,-0.30517578125,0.9606006042664876,-0.0490737632374034,0.2480544450209051,-34.125,-1.875,-38.25
344.5,0.244140625,-0.1220703125,-0.1220703125,0.9630420850245676,-0.0494399853511154,0.2513504440443129,-32.3125,-0.75,-38.25
345.0,0.1220703125,0.06103515625,0.06103515625,0.9623096407971434,-0.0511490218817713,0.2471999267555772,-32.3125,-1.875,-39.875
345.5,0.0,0.244140625,-0.18310546875,0.9640186773277992,-0.0511490218817713,0.2547685171056245,-31.6875,1.125,-38.625
346.0,0.06103515625,-0.18310546875,-0.244140625,0.9624317148350474,-0.0545670949430829,0.2463454084902493,-31.9375,-0.75,-37.8125
346.5,0.18310546875,0.06103515625,0.0,0.9607226783043916,-0.0489516891994994,0.2517166661580248,-31.6875,0.375,-38.625
347.0,0.06103515625,0.0,-0.06103515625,0.9648731955931272,-0.0488296151615955,0.2525711844233527,-30.9375,-1.4375,-38.625
347.5,0.1220703125,0.3662109375,-0.18310546875,0.9613330484939115,-0.0474868007446516,0.2487868892483291,-32.3125,-0.375,-40.25
348.0,0.18310546875,0.1220703125,0.18310546875,0.9640186773277992,-0.0491958372753074,0.2536698507644886,-31.3125,1.125,-39.875
348.5,0.1220703125,0.0,0.06103515625,0.9646290475173191,-0.0484633930478835,0.2503738517410809,-32.6875,-1.4375,-34.9375
349.0,0.1220703125,0.0,-0.06103515625,0.9631641590624714,-0.0454115421002838,0.2533036286507767,-32.3125,-0.75,-37.375
349.5,0.67138671875,0.42724609375,0.06103515625,0.9610889004181036,-0.0501724295785393,0.2570879238258003,-33.8125,-0.75,-36.5625
350.0,-0.3662109375,0.18310546875,0.6103515625,0.9620654927213356,-0.0659199804681539,0.2661214026306955,-31.9375,-1.4375,-36.125
350.5,0.244140625,0.0,-0.30517578125,0.9582811975463118,-0.0532242805261391,0.2515945921201208,-32.6875,-1.0625,-38.25
351.0,1.64794921875,-0.18310546875,-0.1220703125,0.9542527542954802,-0.0351573229163487,0.2364574114200262,-33.8125,0.375,-37.375
351.5,-1.64794921875,1.46484375,0.6103515625,0.9709768974883268,-0.0607928708761864,0.2699056978057191,-32.6875,-1.4375,-36.1875
352.0,0.1220703125,1.5869140625,0.1220703125,0.9641407513657032,-0.0506607257301553,0.2675862910855434,-32.6875,0.0,-36.1875
352.5,0.18310546875,0.18310546875,0.3662109375,0.9629200109866634,-0.0446790978728598,0.2578203680532243,-34.875,-1.4375,-39.4375
353.0,0.30517578125,-0.30517578125,-0.18310546875,0.957060457167272,-0.0504165776543473,0.2454908902249214,-31.6875,-2.625,-40.6875
353.5,0.30517578125,-0.18310546875,-0.1220703125,0.9640186773277992,-0.0490737632374034,0.2586748863185522,-31.3125,-1.875,-36.1875
354.0,0.0,0.1220703125,-0.1220703125,0.9613330484939115,-0.0522476882229071,0.2590411084322642,-33.8125,0.75,-35.75
354.5,0.0,-0.06103515625,-0.06103515625,0.9636524552140874,-0.0484633930478835,0.2525711844233527,-33.8125,-0.75,-38.625
355.0,-0.732421875,0.244140625,0.3662109375,0.9646290475173191,-0.0604266487624744,0.2628254036072878,-30.9375,-0.375,-38.1875
355.5,0.18310546875,-0.54931640625,-0.06103515625,0.9614551225318156,-0.0463881344035157,0.2518387401959288,-31.6875,-0.375,-37.0
356.0,-1.77001953125,2.25830078125,0.1220703125,0.9623096407971434,-0.0438245796075319,0.2412182988982818,-31.6875,0.0,-40.3125
356.5,-0.732421875,1.52587890625,-0.6103515625,0.9646290475173191,-0.043336283455916,0.2678304391613513,-33.4375,-1.4375,-40.3125
357.0,0.06103515625,1.708984375,-0.732421875,0.9608447523422956,-0.0510269478438673,0.2572099978637043,-31.3125,-1.875,-39.4375
357.5,-0.79345703125,0.48828125,1.220703125,0.9645069734794152,-0.0303964354380932,0.2644123661000396,-34.125,-1.0625,-34.9375
358.0,0.244140625,-0.18310546875,-0.48828125,0.9649952696310312,-0.0620136112552262,0.2708822901089511,-32.3125,-2.625,-38.25
358.5,-0.48828125,1.220703125,0.54931640625,0.9636524552140874,-0.0524918362987151,0.2561113315225684,-33.0625,0.0,-38.625
359.0,0.3662109375,0.0,-0.244140625,0.9599902340769676,-0.0581072420422986,0.2563554795983764,-32.3125,0.375,-37.8125
359.5,-0.54931640625,-0.18310546875,-0.244140625,0.9593798638874478,-0.0563982055116428,0.2545243690298165,-33.0625,0.375,-34.9375
360.0,0.18310546875,0.1220703125,-0.06103515625,0.9626758629108554,-0.0567644276253547,0.2514725180822169,-31.6875,-0.375,-39.4375
360.5,-0.06103515625,-0.30517578125,-0.18310546875,0.9607226783043916,-0.0529801324503311,0.2484206671346171,-31.9375,-0.375,-40.25
361.0,0.244140625,-0.06103515625,-0.06103515625,0.9614551225318156,-0.053346354564043,0.2526932584612567,-33.0625,0.75,-38.1875
361.5,0.06103515625,0.1220703125,0.0,0.9604785302285836,-0.0489516891994994,0.2539139988402966,-34.125,-0.75,-38.625
362.0,0.06103515625,0.244140625,0.1220703125,0.9599902340769676,-0.0466322824793237,0.2581865901669362,-32.6875,0.0,-38.1875
362.5,-0.06103515625,-0.06103515625,0.0,0.9654835657826472,-0.0456556901760918,0.2547685171056245,-33.8125,-1.0625,-37.0
363.0,0.42724609375,0.0,-0.06103515625,0.9610889004181036,-0.0502945036164433,0.2523270363475448,-33.4375,-0.75,-38.1875
363.5,-0.30517578125,0.1220703125,0.0,0.9618213446455276,-0.0500503555406353,0.2525711844233527,-32.6875,-1.0625,-40.25
364.0,0.42724609375,0.3662109375,-0.1220703125,0.9614551225318156,-0.0469985045930356,0.2553788872951445,-31.9375,0.0,-38.25
364.5,-0.30517578125,0.3662109375,-0.06103515625,0.9658497878963592,-0.0512710959196752,0.2572099978637043,-33.8125,-1.0625,-41.8125
365.0,0.18310546875,0.06103515625,-0.244140625,0.9608447523422956,-0.0504165776543473,0.2563554795983764,-31.9375,-1.4375,-38.25
365.5,0.18310546875,0.244140625,-0.3662109375,0.9616992706076236,-0.0516373180333872,0.2525711844233527,-31.6875,0.375,-37.375
366.0,1.46484375,0.1220703125,-0.3662109375,0.9642628254036072,-0.0389416180913724,0.2542802209540086,-30.9375,-0.375,-37.0
366.5,0.18310546875,0.0,0.48828125,0.9623096407971434,-0.0504165776543473,0.260261848811304,-33.4375,-1.4375,-40.25
367.0,-1.708984375,1.8310546875,0.0,0.9619434186834316,-0.0572527237769707,0.2514725180822169,-33.4375,0.0,-37.8125
367.5,0.79345703125,-0.6103515625,-1.0986328125,0.9632862331003754,-0.0607928708761864,0.2645344401379436,-32.6875,-0.375,-36.5625
368.0,-0.3662109375,0.3662109375,-0.244140625,0.9670705282753992,-0.0512710959196752,0.260872219000824,-31.9375,0.0,-38.25
368.5,0.18310546875,0.30517578125,0.91552734375,0.9638966032898952,-0.0490737632374034,0.2598956266975921,-31.9375,-0.375,-37.8125
369.0,-0.48828125,0.6103515625,0.0,0.9624317148350474,-0.0491958372753074,0.2463454084902493,-33.4375,0.375,-37.375
369.5,0.0,0.06103515625,-0.18310546875,0.9625537888729514,-0.0549333170567949,0.249885555589465,-31.6875,-0.75,-36.1875
370.0,0.1220703125,-0.1220703125,-0.06103515625,0.9621875667592394,-0.053590502639851,0.249885555589465,-33.4375,-0.75,-38.25
370.5,0.06103515625,0.06103515625,0.0,0.9614551225318156,-0.0546891689809869,0.2518387401959288,-32.3125,-0.375,-35.375
371.0,0.3662109375,0.06103515625,0.0,0.9612109744560076,-0.0562761314737388,0.2514725180822169,-33.0625,0.375,-37.0
371.5,-0.3662109375,0.30517578125,-0.244140625,0.9630420850245676,-0.0506607257301553,0.250129703665273,-33.4375,0.0,-37.0
372.0,0.30517578125,-0.244140625,-0.1220703125,0.9621875667592394,-0.0494399853511154,0.2508621478926969,-32.3125,1.125,-36.1875
372.5,-0.6103515625,0.0,-0.18310546875,0.9581591235084078,-0.0499282815027314,0.2487868892483291,-32.3125,-0.375,-37.0
373.0,0.6103515625,0.18310546875,-0.1220703125,0.9603564561906796,-0.0484633930478835,0.2485427411725211,-33.8125,1.125,-40.25
373.5,1.03759765625,-0.244140625,-0.18310546875,0.9635303811761834,-0.0502945036164433,0.2590411084322642,-31.6875,-0.75,-37.0
374.0,0.1220703125,-1.03759765625,-0.18310546875,0.9641407513657032,-0.0548112430188909,0.2572099978637043,-33.8125,-0.375,-38.625
374.5,0.18310546875,0.8544921875,0.06103515625,0.9651173436689352,-0.0491958372753074,0.2531815546128727,-33.0625,-2.25,-39.875
375.0,0.06103515625,-0.18310546875,0.18310546875,0.9684133426923428,-0.053712576677755,0.2583086642048402,-33.4375,-1.875,-39.0
375.5,2.01416015625,-4.2724609375,-0.91552734375,0.9635303811761834,-0.0529801324503311,0.2396313364055299,-33.0625,-1.0625,-38.25
376.0,-0.6103515625,1.708984375,0.1220703125,0.9642628254036072,-0.0465102084414197,0.2401196325571459,-33.4375,1.5,-38.625
376.5,-1.40380859375,-2.13623046875,-0.42724609375,0.9638966032898952,-0.0438245796075319,0.2109439374980926,-32.6875,-0.375,-36.5625
377.0,-1.3427734375,1.8310546875,0.0,0.9632862331003754,-0.0412610248115482,0.239265114291818,-31.6875,-1.0625,-39.0625
377.5,-0.244140625,0.54931640625,-0.3662109375,0.9580370494705038,-0.0495620593890194,0.2564775536362804,-33.4375,-0.375,-40.25
378.0,0.9765625,-0.42724609375,-0.18310546875,0.9615771965697196,-0.0524918362987151,0.249153111362041,-32.6875,0.0,-39.4375
378.5,-0.244140625,-0.06103515625,-0.30517578125,0.9623096407971434,-0.0487075411236915,0.2537919248023926,-32.6875,-0.375,-38.625
379.0,0.6103515625,-0.3662109375,0.0,0.9637745292519914,-0.053590502639851,0.2545243690298165,-33.4375,-0.375,-36.5625
379.5,0.06103515625,0.06103515625,-0.06103515625,0.9610889004181036,-0.0513931699575792,0.249519333475753,-31.6875,-1.875,-36.1875
380.0,0.06103515625,-0.1220703125,0.0,0.9619434186834316,-0.0517593920712912,0.2490310373241371,-33.4375,-0.375,-37.375
380.5,0.244140625,0.06103515625,0.06103515625,0.9621875667592394,-0.0467543565172277,0.2547685171056245,-33.8125,-0.75,-38.1875
381.0,-0.244140625,0.30517578125,-0.48828125,0.9631641590624714,-0.0482192449720755,0.2572099978637043,-32.3125,-0.75,-33.6875
381.5,-0.06103515625,0.9765625,0.06103515625,0.9615771965697196,-0.0476088747825556,0.2592852565080721,-31.9375,0.375,-40.25
382.0,-1.77001953125,1.3427734375,0.0,0.9634083071382794,-0.0423596911526841,0.2664876247444074,-33.0625,0.375,-39.875
382.5,-0.1220703125,0.30517578125,-0.06103515625,0.9635303811761834,-0.0471205786309396,0.2506179998168889,-31.9375,-0.75,-37.0
383.0,-0.30517578125,0.3662109375,-0.30517578125,0.9618213446455276,-0.0520035401470992,0.2525711844233527,-32.3125,-0.75,-36.1875
383.5,0.30517578125,-0.244140625,0.0,0.9616992706076236,-0.0524918362987151,0.2502517777031769,-30.9375,-0.75,-37.4375
384.0,0.3662109375,-0.1220703125,-0.06103515625,0.9616992706076236,-0.0528580584124271,0.2567217017120883,-33.0625,0.0,-39.4375
384.5,0.18310546875,-0.06103515625,0.0,0.9608447523422956,-0.0501724295785393,0.2555009613330485,-33.8125,-0.375,-42.25
385.0,0.30517578125,-0.06103515625,-0.18310546875,0.9625537888729514,-0.0513931699575792,0.249885555589465,-31.6875,0.0,-35.75
385.5,1.0986328125,-2.13623046875,-0.244140625,0.967680898464919,-0.0529801324503311,0.2782067323831904,-33.8125,0.0,-37.8125
386.0,-1.64794921875,1.953125,-0.244140625,0.9645069734794152,-0.0483413190099795,0.2542802209540086,-32.3125,-0.75,-37.8125
386.5,1.220703125,-3.11279296875,-0.06103515625,0.9608447523422956,-0.0441908017212439,0.2352366710409863,-32.6875,-1.4375,-37.4375
387.0,-0.42724609375,0.8544921875,-0.48828125,0.9591357158116398,-0.0557878353221228,0.2418286690878017,-33.4375,1.125,-37.0
387.5,-0.67138671875,0.54931640625,-0.06103515625,0.9636524552140874,-0.0517593920712912,0.249153111362041,-32.3125,-0.75,-36.1875
388.0,-0.91552734375,1.15966796875,-0.244140625,0.9642628254036072,-0.0474868007446516,0.2546464430677205,-33.0625,-0.75,-40.25
388.5,0.0,0.30517578125,0.0,0.9620654927213356,-0.053346354564043,0.2506179998168889,-32.6875,-0.375,-38.25
389.0,-0.06103515625,0.1220703125,-0.06103515625,0.9614551225318156,-0.0487075411236915,0.2470778527176732,-32.6875,-0.75,-34.9375
389.5,-0.1220703125,0.1220703125,0.0,0.9634083071382794,-0.0482192449720755,0.249275185399945,-32.6875,-1.0625,-37.4375
390.0,0.48828125,-0.30517578125,0.0,0.9626758629108554,-0.0515152439954832,0.2514725180822169,-32.3125,1.125,-39.875
390.5,1.28173828125,0.67138671875,-0.9765625,0.9616992706076236,-0.0415051728873561,0.2584307382427442,-31.9375,-0.75,-37.375
391.0,2.197265625,-0.6103515625,-1.220703125,0.9720755638294626,-0.0515152439954832,0.293099765007477,-33.8125,-0.75,-36.5625
391.5,-0.91552734375,2.0751953125,0.0,0.9654835657826472,-0.054322946867275,0.2517166661580248,-31.6875,0.0,-37.0
392.0,0.1220703125,-0.54931640625,-0.06103515625,0.9620654927213356,-0.053712576677755,0.249641407513657,-33.0625,-2.625,-40.6875
392.5,0.42724609375,-0.30517578125,-0.06103515625,0.9629200109866634,-0.0485854670857875,0.2522049623096408,-32.6875,-2.25,-39.0625
393.0,0.0,0.42724609375,0.0,0.9613330484939115,-0.0462660603656117,0.2502517777031769,-32.3125,0.75,-34.125
393.5,0.18310546875,-0.06103515625,0.1220703125,0.9610889004181036,-0.0473647267067476,0.2517166661580248,-33.0625,-1.0625,-37.8125
394.0,0.42724609375,-0.1220703125,-0.18310546875,0.9624317148350474,-0.053468428601947,0.2504959257789849,-31.3125,-0.75,-35.375
394.5,0.244140625,-0.06103515625,-0.06103515625,0.9632862331003754,-0.0511490218817713,0.2502517777031769,-31.9375,0.375,-39.4375
395.0,-0.06103515625,-0.1220703125,-0.244140625,0.9604785302285836,-0.0473647267067476,0.2524491103854487,-32.3125,-1.875,-39.0625
395.5,0.18310546875,-0.1220703125,-0.18310546875,0.9607226783043916,-0.053346354564043,0.2506179998168889,-32.6875,-1.4375,-38.625
396.0,2.13623046875,-1.5869140625,0.18310546875,0.9651173436689352,-0.0490737632374034,0.260261848811304,-33.0625,-1.0625,-37.4375
396.5,-0.732421875,0.67138671875,0.79345703125,0.9645069734794152,-0.0473647267067476,0.2482985930967131,-32.3125,-2.625,-37.4375
397.0,0.6103515625,-0.30517578125,-0.6103515625,0.95669423505356,-0.0510269478438673,0.2451246681112094,-32.6875,0.375,-35.3125
397.5,1.220703125,1.40380859375,-0.244140625,0.9619434186834316,-0.0397961363567003,0.2518387401959288,-33.8125,-1.875,-39.4375
398.0,-0.244140625,-0.18310546875,0.54931640625,0.9623096407971434,-0.0568865016632587,0.2575762199774163,-32.6875,-1.0625,-40.3125
398.5,-0.67138671875,0.54931640625,-0.1220703125,0.9590136417737358,-0.0521256141850032,0.2548905911435285,-31.9375,0.0,-38.625
399.0,-0.06103515625,0.1220703125,-0.1220703125,0.9618213446455276,-0.0494399853511154,0.2535477767265847,-33.8125,-1.4375,-39.0625
399.5,0.18310546875,-0.244140625,-0.06103515625,0.9612109744560076,-0.0477309488204596,0.2536698507644886,-32.3125,-0.375,-40.3125
400.0,0.18310546875,-0.18310546875,0.1220703125,0.9618213446455276,-0.0511490218817713,0.2537919248023926,-33.8125,1.5,-37.8125
400.5,0.1220703125,0.3662109375,-0.1220703125,0.9624317148350474,-0.0483413190099795,0.2507400738547929,-32.3125,-0.75,-37.375
401.0,-0.3662109375,0.1220703125,-0.18310546875,0.9630420850245676,-0.0468764305551316,0.2485427411725211,-32.6875,-0.75,-35.75
401.5,0.1220703125,0.06103515625,1.03759765625,0.9597460860011596,-0.0385753959776604,0.2570879238258003,-33.0625,-0.375,-38.625
402.0,-1.0986328125,0.732421875,0.30517578125,0.9652394177068392,-0.0544450209051789,0.260994293038728,-32.6875,0.0,-38.625
402.5,-0.1220703125,0.79345703125,-0.30517578125,0.9638966032898952,-0.0416272469252601,0.2442701498458815,-32.3125,-0.75,-38.625
403.0,-0.244140625,-0.91552734375,-0.79345703125,0.9629200109866634,-0.0378429517502365,0.2544022949919126,-33.8125,-1.0625,-36.5625
403.5,-0.54931640625,1.953125,-0.8544921875,0.9691457869197668,-0.0460219122898037,0.2484206671346171,-30.9375,-1.4375,-39.4375
404.0,-0.30517578125,1.52587890625,-0.42724609375,0.9585253456221198,-0.0449232459486678,0.2401196325571459,-32.6875,-0.75,-35.375
404.5,-1.28173828125,0.732421875,-0.1220703125,0.9625537888729514,-0.0446790978728598,0.2627033295693838,-32.6875,-0.375,-40.6875
405.0,-0.9765625,-0.54931640625,-0.79345703125,0.9597460860011596,-0.053590502639851,0.2638019959105197,-32.6875,-0.375,-39.0625
405.5,-0.30517578125,-0.18310546875,0.67138671875,0.9585253456221198,-0.0499282815027314,0.2564775536362804,-32.6875,-1.4375,-34.5
406.0,2.685546875,-2.86865234375,-0.48828125,0.9485152745139928,-0.0571306497390667,0.2358470412305063,-34.125,-0.75,-37.8125
406.5,-0.42724609375,4.45556640625,1.28173828125,0.9608447523422956,-0.0379650257881405,0.2695394756920072,-33.0625,-1.0625,-39.875
407.0,15.19775390625,-1.28173828125,2.44140625,0.9596240119632558,0.0023194067201757,0.2533036286507767,-32.3125,-6.0625,-33.6875
407.5,28.1982421875,-0.1220703125,6.591796875,0.957426679280984,-0.0656758323923459,0.2732016968291268,-34.125,-11.0625,-31.25
408.0,34.24072265625,-0.79345703125,6.89697265625,0.9596240119632558,-0.0267342143009735,0.282113101596118,-35.25,-9.875,-30.0625
408.5,-1.8310546875,0.06103515625,0.30517578125,0.9608447523422956,-0.0739768669698172,0.271858882412183,-35.25,-11.4375,-30.8125
409.0,2.197265625,-0.244140625,-0.3662109375,0.9584032715842158,-0.0330820642719809,0.2640461439863277,-35.5625,-12.1875,-28.0
409.5,-0.42724609375,0.0,0.48828125,0.9597460860011596,-0.0383312479018524,0.2667317728202155,-34.5,-12.5625,-32.0625
410.0,0.244140625,-0.244140625,-0.18310546875,0.9598681600390636,-0.0397961363567003,0.2685628833887753,-34.875,-11.0625,-29.625
410.5,0.244140625,-0.06103515625,-0.06103515625,0.95730460524308,-0.0369884334849086,0.2662434766685995,-35.25,-11.4375,-30.0625
411.0,0.0,-0.18310546875,-0.244140625,0.9593798638874478,-0.0357676931058687,0.2679525131992553,-35.25,-12.5625,-31.6875
411.5,0.244140625,-0.1220703125,-0.18310546875,0.9608447523422956,-0.0418713950010681,0.2622150334177678,-33.8125,-11.8125,-32.0625
412.0,1.0986328125,0.1220703125,-0.06103515625,0.957548753318888,-0.0448011719107638,0.260383922849208,-34.5,-12.1875,-31.6875
412.5,0.42724609375,-0.1220703125,0.06103515625,0.9595019379253518,-0.0407727286599322,0.2657551805169835,-33.0625,-11.4375,-31.25
413.0,-0.54931640625,0.1220703125,0.0,0.9597460860011596,-0.0310068056276131,0.2689291055024873,-33.8125,-8.375,-32.0625
413.5,-27.77099609375,1.77001953125,-8.1787109375,0.9606006042664876,-0.0636005737479781,0.2681966612750633,-32.3125,-5.25,-40.25
414.0,-26.3671875,1.8310546875,-6.28662109375,0.9543748283333842,-0.010376293221839,0.2796716208380382,-32.3125,-4.1875,-34.9375
414.5,0.91552734375,2.44140625,1.220703125,0.955107272560808,-0.0333262123477889,0.2960295419171728,-32.3125,-5.6875,-38.625
415.0,6.89697265625,0.79345703125,2.13623046875,0.9584032715842158,-0.0407727286599322,0.2653889584032716,-32.6875,-5.25,-36.1875
415.5,17.15087890625,2.01416015625,3.173828125,0.95669423505356,-0.0332041383098849,0.2768639179662465,-34.5,-9.875,-30.0625
416.0,15.80810546875,-0.48828125,4.33349609375,0.9590136417737358,-0.0654316843165379,0.2812585833307901,-33.8125,-8.375,-32.875
416.5,-4.39453125,-0.30517578125,-1.03759765625,0.956205938901944,-0.0461439863277077,0.2788171025727103,-35.25,-10.6875,-33.3125
417.0,0.1220703125,-0.1220703125,0.0,0.9582811975463118,-0.0411389507736442,0.2723471785637989,-34.875,-9.125,-33.6875
417.5,3.23486328125,0.244140625,-0.3662109375,0.9599902340769676,-0.0485854670857875,0.2683187353129673,-32.6875,-9.875,-29.6875
418.0,-0.1220703125,0.0,0.0,0.9579149754325998,-0.0501724295785393,0.2724692526017029,-34.5,-10.25,-29.6875
418.5,-0.18310546875,-0.06103515625,-0.244140625,0.9579149754325998,-0.0477309488204596,0.2733237708670308,-33.8125,-9.875,-34.9375
419.0,0.244140625,0.0,0.18310546875,0.957548753318888,-0.0469985045930356,0.2728354747154149,-33.4375,-8.6875,-32.5
419.5,0.244140625,-0.1220703125,-0.42724609375,0.9592577898495438,-0.0498062074648274,0.2719809564500869,-33.0625,-6.4375,-39.875
420.0,-37.2314453125,0.79345703125,-8.72802734375,0.9537644581438642,-0.0938749351481673,0.2855311746574297,-31.3125,-1.875,-36.5625
420.5,-23.01025390625,0.3662109375,-4.150390625,0.9542527542954802,-0.0031739249855037,0.2678304391613513,-32.6875,1.125,-38.25
421.0,-17.4560546875,1.03759765625,-3.84521484375,0.9588915677358316,-0.0598162785729545,0.2877285073397015,-31.9375,3.375,-35.375
421.5,-16.54052734375,4.21142578125,-5.4931640625,0.9619434186834316,-0.0596942045350505,0.2786950285348064,-31.9375,7.25,-34.9375
422.0,-7.75146484375,1.77001953125,-1.8310546875,0.9620654927213356,-0.032593768120365,0.2835779900509659,-31.9375,6.4375,-37.8125
422.5,-1.03759765625,0.06103515625,0.30517578125,0.9609668263801996,-0.0599383526108584,0.2666096987823114,-31.6875,6.8125,-39.0625
423.0,0.06103515625,-0.30517578125,-0.67138671875,0.9618213446455276,-0.0639667958616901,0.2696615497299112,-31.9375,7.625,-34.9375
423.5,0.06103515625,-0.54931640625,-0.6103515625,0.9604785302285836,-0.0570085757011627,0.2674642170476394,-31.6875,6.4375,-37.8125
424.0,0.6103515625,0.244140625,1.0986328125,0.9603564561906796,-0.053834650715659,0.2729575487533189,-30.9375,0.375,-37.8125
424.5,34.97314453125,-0.91552734375,7.32421875,0.9579149754325998,-0.0467543565172277,0.2675862910855434,-34.5,-2.625,-36.5625
425.0,31.18896484375,-3.11279296875,5.4931640625,0.954496902371288,-0.0841090121158482,0.281746879482406,-33.0625,-6.4375,-33.6875
425.5,-0.30517578125,-2.50244140625,-1.64794921875,0.9590136417737358,-0.0675069429609057,0.2567217017120883,-33.0625,-4.1875,-36.625
426.0,-6.34765625,0.06103515625,-1.708984375,0.9627979369487594,-0.0297860652485732,0.2585528122806482,-32.6875,-4.5625,-37.0
426.5,0.6103515625,-0.42724609375,-0.06103515625,0.955839716788232,-0.031983397930845,0.271736808374279,-34.5,-5.6875,-34.5625
427.0,1.220703125,-4.08935546875,-0.9765625,0.957670827356792,-0.0498062074648274,0.2547685171056245,-34.5,-5.25,-37.0
427.5,-0.48828125,1.3427734375,-0.18310546875,0.9612109744560076,-0.0452894680623798,0.2541581469161046,-34.125,-4.875,-39.4375
428.0,0.67138671875,-1.46484375,-0.30517578125,0.9597460860011596,-0.0451673940244758,0.2585528122806482,-32.3125,-3.8125,-35.75
428.5,-1.3427734375,-0.48828125,-2.44140625,0.9579149754325998,-0.0590838343455305,0.2287667470320749,-34.125,-4.5625,-36.5625
429.0,-0.6103515625,1.03759765625,0.06103515625,0.9619434186834316,-0.0400402844325083,0.2801599169896542,-30.9375,-4.1875,-41.0625
429.5,0.06103515625,0.3662109375,-0.67138671875,0.9593798638874478,-0.0507827997680593,0.2627033295693838,-33.8125,-3.375,-35.75
430.0,0.18310546875,0.42724609375,-0.06103515625,0.957792901394696,-0.0444349497970519,0.2683187353129673,-33.8125,-4.5625,-35.75
430.5,-0.06103515625,0.18310546875,-0.30517578125,0.9593798638874478,-0.0474868007446516,0.2672200689718314,-32.3125,-2.25,-38.625
431.0,0.244140625,0.732421875,0.732421875,0.95730460524308,-0.0463881344035157,0.2702719199194311,-33.4375,-4.5625,-39.0625
431.5,-0.3662109375,0.48828125,-0.67138671875,0.957548753318888,-0.0446790978728598,0.2696615497299112,-32.6875,-4.875,-36.1875
432.0,-0.1220703125,-1.28173828125,0.06103515625,0.966704306161687,-0.0505386516922513,0.271858882412183,-34.125,-4.5625,-39.4375
432.5,-0.244140625,0.48828125,0.91552734375,0.9624317148350474,-0.0466322824793237,0.2736899929807428,-32.6875,-4.875,-38.625
433.0,0.1220703125,-0.30517578125,0.18310546875,0.9580370494705038,-0.0570085757011627,0.2677083651234473,-33.8125,-5.6875,-33.75
433.5,0.79345703125,0.3662109375,-0.244140625,0.9652394177068392,-0.0563982055116428,0.2670979949339274,-31.6875,-4.5625,-38.625
434.0,0.3662109375,0.48828125,-0.42724609375,0.9603564561906796,-0.0428479873043,0.2679525131992553,-32.6875,-3.375,-35.375
434.5,1.8310546875,-0.54931640625,-0.244140625,0.9621875667592394,-0.0440687276833399,0.2725913266396069,-31.6875,-6.8125,-37.4375
435.0,0.8544921875,-1.46484375,0.30517578125,0.9620654927213356,-0.0473647267067476,0.2503738517410809,-33.8125,-4.5625,-37.0
435.5,-0.18310546875,-0.67138671875,-0.18310546875,0.9615771965697196,-0.043336283455916,0.2544022949919126,-33.0625,-4.1875,-33.6875
436.0,1.28173828125,-3.72314453125,0.8544921875,0.966460158085879,-0.0365001373332926,0.2679525131992553,-34.125,-4.5625,-37.375
436.5,-1.953125,2.5634765625,0.8544921875,0.9598681600390636,-0.0483413190099795,0.2624591814935758,-32.6875,-5.25,-35.375
437.0,0.0,-0.18310546875,-0.06103515625,0.957426679280984,-0.0473647267067476,0.271736808374279,-32.6875,-4.1875,-35.75
437.5,-0.30517578125,0.1220703125,-0.1220703125,0.9599902340769676,-0.0482192449720755,0.2646565141758477,-33.4375,-6.0625,-34.9375
438.0,-0.06103515625,0.18310546875,0.06103515625,0.957548753318888,-0.0489516891994994,0.2650227362895596,-32.3125,-4.5625,-38.25
438.5,1.89208984375,0.54931640625,0.244140625,0.9601123081148716,-0.0521256141850032,0.2710043641468551,-33.4375,-3.0,-37.8125
439.0,1.15966796875,-1.03759765625,0.48828125,0.9591357158116398,-0.031983397930845,0.2512283700064089,-32.3125,-5.25,-35.375
439.5,0.30517578125,0.48828125,0.3662109375,0.9596240119632558,-0.0399182103946043,0.249275185399945,-35.25,-6.4375,-36.1875
440.0,1.03759765625,0.18310546875,0.30517578125,0.9518112735374004,-0.0435804315317239,0.2729575487533189,-33.4375,-6.0625,-37.8125
440.5,-3.84521484375,4.2724609375,1.40380859375,0.9627979369487594,-0.0573747978148747,0.2645344401379436,-32.6875,-5.6875,-39.875
441.0,-0.06103515625,-0.1220703125,0.06103515625,0.956450086977752,-0.0494399853511154,0.260505996887112,-32.3125,-3.375,-35.375
441.5,-0.1220703125,0.244140625,0.0,0.9598681600390636,-0.0445570238349559,0.261116367076632,-33.0625,-3.8125,-37.8125
442.0,0.3662109375,-0.732421875,-0.06103515625,0.9616992706076236,-0.0480971709341715,0.2619708853419599,-33.0625,-4.1875,-37.0
442.5,-0.6103515625,0.6103515625,0.42724609375,0.9614551225318156,-0.0574968718527787,0.2628254036072878,-32.6875,-3.375,-37.8125
443.0,0.48828125,0.91552734375,-0.54931640625,0.9553514206366162,-0.0544450209051789,0.2585528122806482,-34.125,-6.4375,-36.5625
443.5,0.1220703125,-0.42724609375,-0.18310546875,0.9587694936979276,-0.0484633930478835,0.2583086642048402,-33.8125,-6.8125,-37.8125
444.0,0.18310546875,-0.6103515625,0.0,0.9595019379253518,-0.0494399853511154,0.261116367076632,-33.8125,-4.875,-36.1875
444.5,-0.6103515625,0.6103515625,-0.1220703125,0.9599902340769676,-0.0488296151615955,0.2751548814355907,-32.6875,-5.6875,-34.125
445.0,3.2958984375,1.28173828125,-0.1220703125,0.9604785302285836,-0.0511490218817713,0.2685628833887753,-33.4375,-4.875,-38.25
445.5,0.1220703125,0.0,-0.244140625,0.9552293465987122,-0.0521256141850032,0.271370586260567,-32.3125,-4.875,-37.4375
446.0,-0.1220703125,-0.30517578125,-0.1220703125,0.955717642750328,-0.0505386516922513,0.2764976958525346,-33.0625,-4.5625,-36.5625
446.5,-0.3662109375,0.06103515625,0.06103515625,0.95547349467452,-0.0439466536454359,0.2744224372081667,-32.3125,-6.0625,-38.25
447.0,3.11279296875,-0.3662109375,0.67138671875,0.955839716788232,-0.054200872829371,0.2790612506485183,-33.0625,-5.25,-37.375
447.5,1.0986328125,-2.44140625,-0.3662109375,0.957670827356792,-0.0422376171147801,0.2594073305459761,-31.9375,-4.5625,-37.8125
448.0,0.244140625,-0.42724609375,-0.1220703125,0.9602343821527756,-0.0474868007446516,0.2640461439863277,-33.4375,-4.1875,-36.1875
448.5,0.732421875,-0.48828125,-0.48828125,0.957548753318888,-0.0390636921292764,0.2551347392193365,-32.3125,-5.25,-37.8125
449.0,-0.8544921875,1.5869140625,0.18310546875,0.9581591235084078,-0.0448011719107638,0.2616046632282479,-32.6875,-4.5625,-36.5625
449.5,-0.3662109375,0.1220703125,0.06103515625,0.9591357158116398,-0.0411389507736442,0.2661214026306955,-33.8125,-6.4375,-35.375
450.0,0.3662109375,-0.06103515625,0.0,0.9586474196600238,-0.031861323892941,0.2802819910275582,-33.0625,-4.875,-37.4375
450.5,-0.3662109375,2.01416015625,-0.3662109375,0.9593798638874478,-0.0435804315317239,0.2834559160130619,-32.3125,-4.5625,-38.625
451.0,-0.6103515625,1.52587890625,0.18310546875,0.9518112735374004,-0.0595721304971465,0.2625812555314798,-32.3125,-8.0,-37.0
451.5,0.48828125,-1.15966796875,-0.42724609375,0.966704306161687,-0.0032959990234076,0.2780846583452864,-33.4375,-4.5625,-38.625
452.0,2.74658203125,-3.2958984375,0.06103515625,0.9580370494705038,-0.0378429517502365,0.2419507431257057,-32.6875,-6.4375,-36.5625
452.5,0.3662109375,0.1220703125,0.18310546875,0.9615771965697196,-0.0441908017212439,0.271736808374279,-33.8125,-6.8125,-36.1875
453.0,1.220703125,-2.01416015625,-0.18310546875,0.9612109744560076,-0.0415051728873561,0.2463454084902493,-33.0625,-5.6875,-35.75
453.5,0.48828125,-0.9765625,-0.79345703125,0.9591357158116398,-0.0280770287179174,0.2598956266975921,-33.4375,-5.6875,-34.5625
454.0,-1.40380859375,0.9765625,0.6103515625,0.9627979369487594,-0.0528580584124271,0.2685628833887753,-33.4375,-4.875,-38.625
454.5,0.67138671875,-1.8310546875,-0.91552734375,0.9596240119632558,-0.0456556901760918,0.2744224372081667,-33.4375,-8.6875,-32.875
455.0,3.96728515625,-3.7841796875,-0.8544921875,0.9619434186834316,-0.0339365825373088,0.2559892574846644,-34.875,-7.25,-26.8125
455.5,-4.45556640625,-17.333984375,2.3193359375,0.9923398541215248,-0.0062257759331034,0.1268349253822443,-33.0625,-4.875,-28.875
456.0,-21.240234375,1.03759765625,-3.60107421875,0.9748832667012544,0.0172124393444624,0.0728782006286812,-33.4375,-1.0625,-28.4375
456.5,-13.0615234375,2.01416015625,2.38037109375,0.9826960051271096,0.0306405835139011,0.1792046876430555,-33.0625,-3.8125,-31.25
457.0,2.197265625,2.0751953125,0.18310546875,0.9746391186254464,-0.075685903500473,0.1328165532395397,-30.5625,-3.375,-37.8125
457.5,5.7373046875,23.74267578125,1.5869140625,0.9710989715262308,0.0023194067201757,0.2789391766106143,-32.6875,-3.375,-35.75
458.0,2.01416015625,-2.25830078125,-0.244140625,0.9603564561906796,0.0020752586443678,0.2869960631122776,-34.125,-5.25,-32.0625
458.5,9.8876953125,2.3193359375,4.5166015625,0.9638966032898952,-0.0300302133243812,0.2148503067110202,-31.6875,-5.25,-35.75
459.0,6.34765625,-0.42724609375,1.220703125,0.967436750389111,-0.0531022064882351,0.2364574114200262,-32.3125,-4.875,-34.5625
459.5,-1.89208984375,-0.30517578125,0.244140625,0.957792901394696,-0.0328379161961729,0.2268135624256111,-33.8125,-4.5625,-40.6875
460.0,0.06103515625,0.0,-0.48828125,0.9638966032898952,-0.0474868007446516,0.2563554795983764,-33.8125,-4.1875,-37.4375
460.5,1.0986328125,-1.52587890625,-0.1220703125,0.9630420850245676,-0.0455336161381878,0.2565996276741843,-32.6875,-4.1875,-34.5625
461.0,1.3427734375,0.244140625,-0.18310546875,0.9646290475173191,-0.042725913266396,0.2408520767845698,-31.9375,-4.5625,-37.8125
461.5,0.18310546875,-0.30517578125,-0.06103515625,0.968047120578631,-0.0452894680623798,0.228156376842555,-33.8125,-5.25,-37.8125
462.0,-1.3427734375,0.18310546875,-0.48828125,0.9732963042085024,-0.0277108066042054,0.2410962248603778,-32.3125,-5.25,-37.8125
462.5,-0.54931640625,1.8310546875,-0.54931640625,0.9619434186834316,-0.0385753959776604,0.2513504440443129,-34.125,-4.1875,-37.4375
463.0,1.46484375,-1.953125,0.3662109375,0.9625537888729514,-0.0444349497970519,0.2404858546708578,-32.3125,-5.6875,-37.4375
463.5,0.6103515625,0.0,0.18310546875,0.9632862331003754,-0.0477309488204596,0.2396313364055299,-32.3125,-4.1875,-37.4375
464.0,-0.54931640625,-0.18310546875,-0.30517578125,0.968047120578631,-0.0462660603656117,0.2502517777031769,-33.0625,-3.375,-36.5625
464.5,-1.8310546875,0.0,0.244140625,0.9709768974883268,-0.0250251777703176,0.2354808191167943,-32.3125,-4.1875,-38.625
465.0,-0.67138671875,0.67138671875,0.79345703125,0.9597460860011596,-0.0399182103946043,0.2589190343943602,-31.9375,-2.25,-36.1875
465.5,0.67138671875,0.732421875,-0.18310546875,0.9609668263801996,-0.0401623584704123,0.2675862910855434,-33.4375,-4.875,-37.4375
466.0,1.0986328125,3.11279296875,-1.708984375,0.9645069734794152,-0.0396740623187963,0.2874843592638935,-31.6875,-8.0,-37.4375
466.5,7.6904296875,-1.3427734375,0.3662109375,0.9595019379253518,0.0200201422162541,0.2436597796563616,-34.875,-7.25,-34.125
467.0,-0.42724609375,0.244140625,-0.3662109375,0.967802972502823,-0.0275887325663014,0.2288888210699789,-33.4375,-7.25,-36.1875
467.5,1.40380859375,-1.52587890625,-2.197265625,0.9731742301705985,-0.0006103701895199,0.2113101596118045,-34.875,-6.8125,-34.9375
468.0,-4.33349609375,-3.662109375,2.44140625,0.9737846003601184,-0.0164799951170384,0.2105777153843806,-33.4375,-6.8125,-36.1875
468.5,1.8310546875,1.15966796875,-1.52587890625,0.9657277138584552,0.0069582201605273,0.2120426038392285,-35.25,-6.4375,-35.75
469.0,-1.40380859375,-1.64794921875,2.38037109375,0.9718314157536546,-0.0019531846064638,0.2148503067110202,-35.25,-6.0625,-37.4375
469.5,-1.8310546875,-0.42724609375,-0.8544921875,0.9695120090334788,-0.0245368816187017,0.2133854182561723,-33.0625,-8.6875,-37.0
470.0,7.6904296875,0.54931640625,-4.8828125,0.967925046540727,-0.0063478499710074,0.216803491317484,-32.6875,-11.0625,-38.25
470.5,-2.8076171875,1.953125,0.79345703125,0.9586474196600238,0.0249031037324137,0.2214423047578356,-31.9375,-6.0625,-38.25
471.0,-2.5634765625,-0.8544921875,2.3193359375,0.9586474196600238,0.0686056093020416,0.2534257026886807,-33.8125,-6.4375,-37.8125
471.5,-3.35693359375,0.6103515625,1.40380859375,0.9638966032898952,0.0087893307290871,0.2617267372661519,-33.8125,-6.4375,-36.1875
472.0,-0.42724609375,-0.1220703125,-0.18310546875,0.9586474196600238,-0.0025635547959837,0.2625812555314798,-31.9375,-6.4375,-35.75
472.5,1.28173828125,-2.44140625,-0.30517578125,0.9623096407971434,-0.0047608874782555,0.282235175634022,-33.0625,-6.8125,-34.125
473.0,2.3193359375,1.03759765625,-0.8544921875,0.9693899349955748,-0.0181890316476943,0.2524491103854487,-31.3125,-6.4375,-39.0625
473.5,-1.52587890625,0.48828125,0.79345703125,0.9608447523422956,-0.0008545182653279,0.2320627460554826,-33.0625,-5.6875,-36.1875
474.0,-3.173828125,2.74658203125,1.52587890625,0.9631641590624714,0.0089114047669911,0.2631916257209998,-32.6875,-4.875,-39.0625
474.5,1.3427734375,0.6103515625,-0.48828125,0.9613330484939115,-0.009887997070223,0.2667317728202155,-32.6875,-5.25,-38.25
475.0,-0.30517578125,-0.3662109375,0.0,0.956205938901944,0.0048829615161595,0.2627033295693838,-31.9375,-4.5625,-34.5625
475.5,-0.42724609375,-0.3662109375,0.54931640625,0.9641407513657032,-0.0201422162541581,0.2551347392193365,-33.0625,-5.25,-37.0
476.0,0.3662109375,-0.244140625,-0.30517578125,0.9588915677358316,-0.0037842951750236,0.2625812555314798,-32.6875,-6.4375,-37.4375
